stm,pos,size,loop.thisRepN,loop.thisTrialN,loop.thisN,loop.thisIndex,loopR.thisRepN,loopR.thisTrialN,loopR.thisN,loopR.thisIndex,loopL.thisRepN,loopL.thisTrialN,loopL.thisN,loopL.thisIndex,Hello.started,Hello.stopped,key_r.started,key_r.stopped,key_gr.started,key_gr.stopped,key_esc_r.keys,key_esc_r.rt,key_esc_r.started,key_esc_r.stopped,fix_right.started,fix_right.stopped,face_r.started,face_r.stopped,key_sel_r.keys,key_sel_r.rt,key_sel_r.started,key_sel_r.stopped,key_l.started,key_l.stopped,key_gl.started,key_gl.stopped,key_esc_l.keys,key_esc_l.rt,key_esc_l.started,key_esc_l.stopped,fix_left.started,fix_left.stopped,face_l.started,face_l.stopped,key_sel_l.keys,key_sel_l.rt,key_sel_l.started,key_sel_l.stopped,bye.started,bye.stopped,sbj,hndns,eye,age,edu,sex,date,expName,psychopyVersion,frameRate,
50.bmp,"(0, -6.11)","(5.24, 5.24)",0,0,0,0,0,0,0,76,,,,,201.87785599997733,None,203.9002247999888,None,203.9002247999888,None,space,27.58463269995991,203.9002247999888,None,231.52137870003935,None,232.02340449998155,232.07232749997638,p,15.416754300007597,232.02340449998155,None,,,,,,,,,,,,,,,,,,,8101003552,r,r,45,1,f,2022-03-10_19h14.06.425,HW1_Rostami_810100355,2022.1.1,60.07701872298738,
30.bmp,"(0, 6.11)","(5.24, 5.24)",0,0,0,0,0,1,1,47,,,,,,,,,,,,,,,247.45921040000394,None,247.9583898000419,248.00823659996968,p,1.735865000053309,247.9583898000419,None,,,,,,,,,,,,,,,,,,,8101003552,r,r,45,1,f,2022-03-10_19h14.06.425,HW1_Rostami_810100355,2022.1.1,60.07701872298738,
50.bmp,"(-5.25, 3.05)","(5.24, 5.24)",0,0,0,0,0,2,2,74,,,,,,,,,,,,,,,249.7237335999962,None,250.2234512999421,250.2730572000146,p,1.209603299968876,250.2234512999421,None,,,,,,,,,,,,,,,,,,,8101003552,r,r,45,1,f,2022-03-10_19h14.06.425,HW1_Rostami_810100355,2022.1.1,60.07701872298738,
60.bmp,"(-5.25, -3.05)","(5.24, 5.24)",0,0,0,0,0,3,3,88,,,,,,,,,,,,,,,251.45552580000367,None,251.95505760004744,252.00486929994076,p,1.2771331999683753,251.95505760004744,None,,,,,,,,,,,,,,,,,,,8101003552,r,r,45,1,f,2022-03-10_19h14.06.425,HW1_Rostami_810100355,2022.1.1,60.07701872298738,
10.bmp,"(0, 6.11)","(5.24, 5.24)",0,0,0,0,0,4,4,21,,,,,,,,,,,,,,,253.2538523999974,None,253.75361479993444,253.80355019995477,p,1.6545836000004783,253.75361479993444,None,,,,,,,,,,,,,,,,,,,8101003552,r,r,45,1,f,2022-03-10_19h14.06.425,HW1_Rostami_810100355,2022.1.1,60.07701872298738,
0.bmp,"(1.74, -3)","(3.49, 3.49)",0,0,0,0,0,5,5,6,,,,,,,,,,,,,,,255.43559150001965,None,255.93480409996118,255.9846094000386,p,1.2311571999453008,255.93480409996118,None,,,,,,,,,,,,,,,,,,,8101003552,r,r,45,1,f,2022-03-10_19h14.06.425,HW1_Rostami_810100355,2022.1.1,60.07701872298738,
20.bmp,"(-5.25, 3.05)","(5.24, 5.24)",0,0,0,0,0,6,6,35,,,,,,,,,,,,,,,257.1839613999473,None,257.6834770999849,257.73328020004556,o,2.509711100021377,257.6834770999849,None,,,,,,,,,,,,,,,,,,,8101003552,r,r,45,1,f,2022-03-10_19h14.06.425,HW1_Rostami_810100355,2022.1.1,60.07701872298738,
60.bmp,"(5.25, -3.05)","(5.24, 5.24)",0,0,0,0,0,7,7,90,,,,,,,,,,,,,,,260.2146198999835,None,260.7140756000299,260.7639647000469,p,0.9832642000401393,260.7140756000299,None,,,,,,,,,,,,,,,,,,,8101003552,r,r,45,1,f,2022-03-10_19h14.06.425,HW1_Rostami_810100355,2022.1.1,60.07701872298738,
30.bmp,"(1.74, -3)","(3.49, 3.49)",0,0,0,0,0,8,8,45,,,,,,,,,,,,,,,261.72973819996696,None,262.2295264999848,262.2793419000227,p,1.105943699949421,262.2295264999848,None,,,,,,,,,,,,,,,,,,,8101003552,r,r,45,1,f,2022-03-10_19h14.06.425,HW1_Rostami_810100355,2022.1.1,60.07701872298738,
10.bmp,"(-1.74, -3)","(3.49, 3.49)",0,0,0,0,0,9,9,18,,,,,,,,,,,,,,,263.36200870003086,None,263.86146609997377,263.91131570003927,p,1.2954966999823228,263.86146609997377,None,,,,,,,,,,,,,,,,,,,8101003552,r,r,45,1,f,2022-03-10_19h14.06.425,HW1_Rostami_810100355,2022.1.1,60.07701872298738,
70.bmp,"(1.74, -3)","(3.49, 3.49)",0,0,0,0,0,10,10,97,,,,,,,,,,,,,,,265.1768289000029,None,265.6764524000464,265.7263903999701,p,7.065198699943721,265.6764524000464,None,,,,,,,,,,,,,,,,,,,8101003552,r,r,45,1,f,2022-03-10_19h14.06.425,HW1_Rostami_810100355,2022.1.1,60.07701872298738,
50.bmp,"(-5.25, -3.05)","(5.24, 5.24)",0,0,0,0,0,11,11,75,,,,,,,,,,,,,,,272.7705565999495,None,273.269940600032,273.319785199943,p,0.9853584000375122,273.269940600032,None,,,,,,,,,,,,,,,,,,,8101003552,r,r,45,1,f,2022-03-10_19h14.06.425,HW1_Rostami_810100355,2022.1.1,60.07701872298738,
80.bmp,"(-3.49, 0)","(3.49, 3.49)",0,0,0,0,0,12,12,108,,,,,,,,,,,,,,,274.285888500046,None,274.78528029995505,274.83504010003526,p,0.8498770999722183,274.78528029995505,None,,,,,,,,,,,,,,,,,,,8101003552,r,r,45,1,f,2022-03-10_19h14.06.425,HW1_Rostami_810100355,2022.1.1,60.07701872298738,
20.bmp,"(5.25, 3.05)","(5.24, 5.24)",0,0,0,0,0,13,13,33,,,,,,,,,,,,,,,275.66791319998447,None,276.1674791999394,276.21754780004267,p,0.5864892000099644,276.1674791999394,None,,,,,,,,,,,,,,,,,,,8101003552,r,r,45,1,f,2022-03-10_19h14.06.425,HW1_Rostami_810100355,2022.1.1,60.07701872298738,
40.bmp,"(1.74, -3)","(3.49, 3.49)",0,0,0,0,0,14,14,58,,,,,,,,,,,,,,,276.7836289999541,None,277.2830445000436,277.333273599972,p,0.7444942001020536,277.2830445000436,None,,,,,,,,,,,,,,,,,,,8101003552,r,r,45,1,f,2022-03-10_19h14.06.425,HW1_Rostami_810100355,2022.1.1,60.07701872298738,
70.bmp,"(-1.74, -3)","(3.49, 3.49)",0,0,0,0,0,15,15,96,,,,,,,,,,,,,,,278.048672099947,None,278.5488802000182,278.5987725999439,p,0.9861864999402314,278.5488802000182,None,,,,,,,,,,,,,,,,,,,8101003552,r,r,45,1,f,2022-03-10_19h14.06.425,HW1_Rostami_810100355,2022.1.1,60.07701872298738,
70.bmp,"(0, 0)","(2.18, 2.18)",0,0,0,0,0,16,16,91,,,,,,,,,,,,,,,279.5646422000136,None,280.0641467999667,280.1141212999355,p,2.217473999946378,280.0641467999667,None,,,,,,,,,,,,,,,,,,,8101003552,r,r,45,1,f,2022-03-10_19h14.06.425,HW1_Rostami_810100355,2022.1.1,60.07701872298738,
20.bmp,"(-1.74, -3)","(3.49, 3.49)",0,0,0,0,0,17,17,31,,,,,,,,,,,,,,,282.3121710999403,None,282.8116254999768,282.8618206999963,p,0.7792333000106737,282.8116254999768,None,,,,,,,,,,,,,,,,,,,8101003552,r,r,45,1,f,2022-03-10_19h14.06.425,HW1_Rostami_810100355,2022.1.1,60.07701872298738,
70.bmp,"(0, -6.11)","(5.24, 5.24)",0,0,0,0,0,18,18,102,,,,,,,,,,,,,,,283.6111212000251,None,284.11057509994134,284.1603950000135,p,1.3699353999691084,284.11057509994134,None,,,,,,,,,,,,,,,,,,,8101003552,r,r,45,1,f,2022-03-10_19h14.06.425,HW1_Rostami_810100355,2022.1.1,60.07701872298738,
80.bmp,"(-5.25, -3.05)","(5.24, 5.24)",0,0,0,0,0,19,19,114,,,,,,,,,,,,,,,285.5091457000235,None,286.0085761999944,286.05845909996424,o,1.0687821001047269,286.0085761999944,None,,,,,,,,,,,,,,,,,,,8101003552,r,r,45,1,f,2022-03-10_19h14.06.425,HW1_Rostami_810100355,2022.1.1,60.07701872298738,
50.bmp,"(1.74, 3)","(3.49, 3.49)",0,0,0,0,0,20,20,67,,,,,,,,,,,,,,,287.107421600027,None,287.60757049999665,287.6574295000173,p,0.8161904999287799,287.60757049999665,None,,,,,,,,,,,,,,,,,,,8101003552,r,r,45,1,f,2022-03-10_19h14.06.425,HW1_Rostami_810100355,2022.1.1,60.07701872298738,
40.bmp,"(0, 0)","(2.18, 2.18)",0,0,0,0,0,21,21,52,,,,,,,,,,,,,,,288.45670999994036,None,288.95625029993244,289.0063263999764,o,1.055638900026679,288.95625029993244,None,,,,,,,,,,,,,,,,,,,8101003552,r,r,45,1,f,2022-03-10_19h14.06.425,HW1_Rostami_810100355,2022.1.1,60.07701872298738,
10.bmp,"(5.25, 3.05)","(5.24, 5.24)",0,0,0,0,0,22,22,20,,,,,,,,,,,,,,,290.0388222000329,None,290.5382464999566,290.5881997999968,p,1.622420399915427,290.5382464999566,None,,,,,,,,,,,,,,,,,,,8101003552,r,r,45,1,f,2022-03-10_19h14.06.425,HW1_Rostami_810100355,2022.1.1,60.07701872298738,
10.bmp,"(5.25, -3.05)","(5.24, 5.24)",0,0,0,0,0,23,23,25,,,,,,,,,,,,,,,292.18645409995224,None,292.6865678000031,292.7361364000244,p,1.2447707999963313,292.6865678000031,None,,,,,,,,,,,,,,,,,,,8101003552,r,r,45,1,f,2022-03-10_19h14.06.425,HW1_Rostami_810100355,2022.1.1,60.07701872298738,
40.bmp,"(0, -6.11)","(5.24, 5.24)",0,0,0,0,0,24,24,63,,,,,,,,,,,,,,,293.9520346999634,None,294.4517559999367,294.5016398000298,p,0.8490043000783771,294.4517559999367,None,,,,,,,,,,,,,,,,,,,8101003552,r,r,45,1,f,2022-03-10_19h14.06.425,HW1_Rostami_810100355,2022.1.1,60.07701872298738,
70.bmp,"(5.25, -3.05)","(5.24, 5.24)",0,0,0,0,0,25,25,103,,,,,,,,,,,,,,,295.3171464999905,None,295.81679129996337,295.86663189996034,p,1.8742533000186086,295.81679129996337,None,,,,,,,,,,,,,,,,,,,8101003552,r,r,45,1,f,2022-03-10_19h14.06.425,HW1_Rostami_810100355,2022.1.1,60.07701872298738,
40.bmp,"(-5.25, -3.05)","(5.24, 5.24)",0,0,0,0,0,26,26,62,,,,,,,,,,,,,,,297.7149277999997,None,298.21457820001524,298.26438740000594,p,1.1698216999648139,298.21457820001524,None,,,,,,,,,,,,,,,,,,,8101003552,r,r,45,1,f,2022-03-10_19h14.06.425,HW1_Rostami_810100355,2022.1.1,60.07701872298738,
0.bmp,"(0, 6.11)","(5.24, 5.24)",0,0,0,0,0,27,27,8,,,,,,,,,,,,,,,299.41357670002617,None,299.9133695999626,299.9630492000142,p,0.7737877999898046,299.9133695999626,None,,,,,,,,,,,,,,,,,,,8101003552,r,r,45,1,f,2022-03-10_19h14.06.425,HW1_Rostami_810100355,2022.1.1,60.07701872298738,
10.bmp,"(-5.25, -3.05)","(5.24, 5.24)",0,0,0,0,0,28,28,23,,,,,,,,,,,,,,,300.71256220003124,None,301.21215000003576,301.2620097999461,p,1.6297056999756023,301.21215000003576,None,,,,,,,,,,,,,,,,,,,8101003552,r,r,45,1,f,2022-03-10_19h14.06.425,HW1_Rostami_810100355,2022.1.1,60.07701872298738,
10.bmp,"(1.74, -3)","(3.49, 3.49)",0,0,0,0,0,29,29,19,,,,,,,,,,,,,,,302.8608593000099,None,303.360547499964,303.41047410003375,p,1.1325396000174806,303.360547499964,None,,,,,,,,,,,,,,,,,,,8101003552,r,r,45,1,f,2022-03-10_19h14.06.425,HW1_Rostami_810100355,2022.1.1,60.07701872298738,
30.bmp,"(-3.49, 0)","(3.49, 3.49)",0,0,0,0,0,30,30,43,,,,,,,,,,,,,,,304.50914129999,None,305.00915749999695,305.05877030000556,p,0.9225317999953404,305.00915749999695,None,,,,,,,,,,,,,,,,,,,8101003552,r,r,45,1,f,2022-03-10_19h14.06.425,HW1_Rostami_810100355,2022.1.1,60.07701872298738,
70.bmp,"(-3.49, 0)","(3.49, 3.49)",0,0,0,0,0,31,31,95,,,,,,,,,,,,,,,305.9581198999658,None,306.4577458000276,306.5074480000185,p,0.750272799981758,306.4577458000276,None,,,,,,,,,,,,,,,,,,,8101003552,r,r,45,1,f,2022-03-10_19h14.06.425,HW1_Rostami_810100355,2022.1.1,60.07701872298738,
60.bmp,"(0, 6.11)","(5.24, 5.24)",0,0,0,0,0,32,32,86,,,,,,,,,,,,,,,307.24042960000224,None,307.73990149993915,307.7895736999344,p,1.027926200069487,307.73990149993915,None,,,,,,,,,,,,,,,,,,,8101003552,r,r,45,1,f,2022-03-10_19h14.06.425,HW1_Rostami_810100355,2022.1.1,60.07701872298738,
30.bmp,"(3.49, 0)","(3.49, 3.49)",0,0,0,0,0,33,33,40,,,,,,,,,,,,,,,308.78918269998394,None,309.28877029998694,309.33857589995023,p,2.568968400009908,309.28877029998694,None,,,,,,,,,,,,,,,,,,,8101003552,r,r,45,1,f,2022-03-10_19h14.06.425,HW1_Rostami_810100355,2022.1.1,60.07701872298738,
80.bmp,"(0, 0)","(2.18, 2.18)",0,0,0,0,0,34,34,104,,,,,,,,,,,,,,,311.8862129000481,None,312.3859283999773,312.43548490002286,o,1.1513189999386668,312.3859283999773,None,,,,,,,,,,,,,,,,,,,8101003552,r,r,45,1,f,2022-03-10_19h14.06.425,HW1_Rostami_810100355,2022.1.1,60.07701872298738,
70.bmp,"(-5.25, -3.05)","(5.24, 5.24)",0,0,0,0,0,35,35,101,,,,,,,,,,,,,,,313.56811039999593,None,314.0676933999639,314.1175165999448,p,1.3014372000470757,314.0676933999639,None,,,,,,,,,,,,,,,,,,,8101003552,r,r,45,1,f,2022-03-10_19h14.06.425,HW1_Rostami_810100355,2022.1.1,60.07701872298738,
10.bmp,"(3.49, 0)","(3.49, 3.49)",0,0,0,0,0,36,36,14,,,,,,,,,,,,,,,315.3995249000145,None,315.89940500003286,315.9496249000076,p,1.0766524999635294,315.89940500003286,None,,,,,,,,,,,,,,,,,,,8101003552,r,r,45,1,f,2022-03-10_19h14.06.425,HW1_Rostami_810100355,2022.1.1,60.07701872298738,
40.bmp,"(3.49, 0)","(3.49, 3.49)",0,0,0,0,0,37,37,53,,,,,,,,,,,,,,,316.99857189995237,None,317.4982059999602,317.5481232999591,p,2.034606699948199,317.4982059999602,None,,,,,,,,,,,,,,,,,,,8101003552,r,r,45,1,f,2022-03-10_19h14.06.425,HW1_Rostami_810100355,2022.1.1,60.07701872298738,
80.bmp,"(0, 6.11)","(5.24, 5.24)",0,0,0,0,0,38,38,112,,,,,,,,,,,,,,,319.5631424000021,None,320.06261240004096,320.1125362999737,p,1.9933498000027612,320.06261240004096,None,,,,,,,,,,,,,,,,,,,8101003552,r,r,45,1,f,2022-03-10_19h14.06.425,HW1_Rostami_810100355,2022.1.1,60.07701872298738,
30.bmp,"(0, -6.11)","(5.24, 5.24)",0,0,0,0,0,39,39,50,,,,,,,,,,,,,,,322.0772514999844,None,322.5769469999941,322.62682110001333,p,2.4409014999400824,322.5769469999941,None,,,,,,,,,,,,,,,,,,,8101003552,r,r,45,1,f,2022-03-10_19h14.06.425,HW1_Rostami_810100355,2022.1.1,60.07701872298738,
40.bmp,"(5.25, -3.05)","(5.24, 5.24)",0,0,0,0,0,40,40,64,,,,,,,,,,,,,,,325.0413760000374,None,325.5410637999885,325.59085989999585,o,1.4712841999717057,325.5410637999885,None,,,,,,,,,,,,,,,,,,,8101003552,r,r,45,1,f,2022-03-10_19h14.06.425,HW1_Rostami_810100355,2022.1.1,60.07701872298738,
20.bmp,"(1.74, 3)","(3.49, 3.49)",0,0,0,0,0,41,41,28,,,,,,,,,,,,,,,327.0396073999582,None,327.5392562999623,327.5891382000409,p,1.0463917000452057,327.5392562999623,None,,,,,,,,,,,,,,,,,,,8101003552,r,r,45,1,f,2022-03-10_19h14.06.425,HW1_Rostami_810100355,2022.1.1,60.07701872298738,
10.bmp,"(0, -6.11)","(5.24, 5.24)",0,0,0,0,0,42,42,24,,,,,,,,,,,,,,,328.6052143999841,None,329.10468979994766,329.15446899994276,p,0.7788972000125796,329.10468979994766,None,,,,,,,,,,,,,,,,,,,8101003552,r,r,45,1,f,2022-03-10_19h14.06.425,HW1_Rostami_810100355,2022.1.1,60.07701872298738,
20.bmp,"(3.49, 0)","(3.49, 3.49)",0,0,0,0,0,43,43,27,,,,,,,,,,,,,,,329.9041011999361,None,330.4036644999869,330.45343999995384,p,1.3569859999697655,330.4036644999869,None,,,,,,,,,,,,,,,,,,,8101003552,r,r,45,1,f,2022-03-10_19h14.06.425,HW1_Rostami_810100355,2022.1.1,60.07701872298738,
10.bmp,"(-3.49, 0)","(3.49, 3.49)",0,0,0,0,0,44,44,17,,,,,,,,,,,,,,,331.78529200004414,None,332.28493520000484,332.3349932000274,p,1.2443515999475494,332.28493520000484,None,,,,,,,,,,,,,,,,,,,8101003552,r,r,45,1,f,2022-03-10_19h14.06.425,HW1_Rostami_810100355,2022.1.1,60.07701872298738,
10.bmp,"(-5.25, 3.05)","(5.24, 5.24)",0,0,0,0,0,45,45,22,,,,,,,,,,,,,,,333.55063259997405,None,334.0503602999961,334.10025599994697,p,1.331238399958238,334.0503602999961,None,,,,,,,,,,,,,,,,,,,8101003552,r,r,45,1,f,2022-03-10_19h14.06.425,HW1_Rostami_810100355,2022.1.1,60.07701872298738,
50.bmp,"(-1.74, -3)","(3.49, 3.49)",0,0,0,0,0,46,46,70,,,,,,,,,,,,,,,335.4096557999728,None,335.91525610000826,335.9650965000037,p,1.5745286999735981,335.91525610000826,None,,,,,,,,,,,,,,,,,,,8101003552,r,r,45,1,f,2022-03-10_19h14.06.425,HW1_Rostami_810100355,2022.1.1,60.07701872298738,
0.bmp,"(3.49, 0)","(3.49, 3.49)",0,0,0,0,0,47,47,1,,,,,,,,,,,,,,,337.5140100000426,None,338.01354549999814,338.06306469999254,p,1.5654630999779329,338.01354549999814,None,,,,,,,,,,,,,,,,,,,8101003552,r,r,45,1,f,2022-03-10_19h14.06.425,HW1_Rostami_810100355,2022.1.1,60.07701872298738,
20.bmp,"(-5.25, -3.05)","(5.24, 5.24)",0,0,0,0,0,48,48,36,,,,,,,,,,,,,,,339.5955336999614,None,340.0951817999594,340.1450298000127,p,1.3039967000950128,340.0951817999594,None,,,,,,,,,,,,,,,,,,,8101003552,r,r,45,1,f,2022-03-10_19h14.06.425,HW1_Rostami_810100355,2022.1.1,60.07701872298738,
50.bmp,"(0, 6.11)","(5.24, 5.24)",0,0,0,0,0,49,49,73,,,,,,,,,,,,,,,341.4269877000479,None,341.9269187999889,341.9767526999349,p,1.1127930999500677,341.9269187999889,None,,,,,,,,,,,,,,,,,,,8101003552,r,r,45,1,f,2022-03-10_19h14.06.425,HW1_Rostami_810100355,2022.1.1,60.07701872298738,
0.bmp,"(0, 0)","(2.18, 2.18)",0,0,0,0,0,50,50,0,,,,,,,,,,,,,,,343.05889760004357,None,343.55865729996003,343.60845739999786,p,1.3060394000494853,343.55865729996003,None,,,,,,,,,,,,,,,,,,,8101003552,r,r,45,1,f,2022-03-10_19h14.06.425,HW1_Rostami_810100355,2022.1.1,60.07701872298738,
20.bmp,"(0, -6.11)","(5.24, 5.24)",0,0,0,0,0,51,51,37,,,,,,,,,,,,,,,344.8908207999775,None,345.3902526999591,345.44009099993855,p,1.2224830000195652,345.3902526999591,None,,,,,,,,,,,,,,,,,,,8101003552,r,r,45,1,f,2022-03-10_19h14.06.425,HW1_Rostami_810100355,2022.1.1,60.07701872298738,
10.bmp,"(1.74, 3)","(3.49, 3.49)",0,0,0,0,0,52,52,15,,,,,,,,,,,,,,,346.6392101999372,None,347.13872479996644,347.1884338000091,p,1.2975490000098944,347.13872479996644,None,,,,,,,,,,,,,,,,,,,8101003552,r,r,45,1,f,2022-03-10_19h14.06.425,HW1_Rostami_810100355,2022.1.1,60.07701872298738,
60.bmp,"(0, 0)","(2.18, 2.18)",0,0,0,0,0,53,53,78,,,,,,,,,,,,,,,348.4539858000353,None,348.9538753000088,349.0038418000331,o,1.5209445001091808,348.9538753000088,None,,,,,,,,,,,,,,,,,,,8101003552,r,r,45,1,f,2022-03-10_19h14.06.425,HW1_Rostami_810100355,2022.1.1,60.07701872298738,
20.bmp,"(0, 6.11)","(5.24, 5.24)",0,0,0,0,0,54,54,34,,,,,,,,,,,,,,,350.5025687000016,None,351.00200340000447,351.0518296000082,p,1.0653192999307066,351.00200340000447,None,,,,,,,,,,,,,,,,,,,8101003552,r,r,45,1,f,2022-03-10_19h14.06.425,HW1_Rostami_810100355,2022.1.1,60.07701872298738,
40.bmp,"(0, 6.11)","(5.24, 5.24)",0,0,0,0,0,55,55,60,,,,,,,,,,,,,,,352.08438469993416,None,352.5839605999645,352.63381210004445,p,1.8523697999771684,352.5839605999645,None,,,,,,,,,,,,,,,,,,,8101003552,r,r,45,1,f,2022-03-10_19h14.06.425,HW1_Rostami_810100355,2022.1.1,60.07701872298738,
50.bmp,"(1.74, -3)","(3.49, 3.49)",0,0,0,0,0,56,56,71,,,,,,,,,,,,,,,354.4657850000076,None,354.9653649999527,355.0151941999793,p,1.4532752999803051,354.9653649999527,None,,,,,,,,,,,,,,,,,,,8101003552,r,r,45,1,f,2022-03-10_19h14.06.425,HW1_Rostami_810100355,2022.1.1,60.07701872298738,
60.bmp,"(-3.49, 0)","(3.49, 3.49)",0,0,0,0,0,57,57,82,,,,,,,,,,,,,,,356.44735110003967,None,356.94685069995467,356.9966747999424,p,1.066603200044483,356.94685069995467,None,,,,,,,,,,,,,,,,,,,8101003552,r,r,45,1,f,2022-03-10_19h14.06.425,HW1_Rostami_810100355,2022.1.1,60.07701872298738,
70.bmp,"(0, 6.11)","(5.24, 5.24)",0,0,0,0,0,58,58,99,,,,,,,,,,,,,,,358.04567819996737,None,358.54589139996096,358.59519719996024,p,1.1882596999639645,358.54589139996096,None,,,,,,,,,,,,,,,,,,,8101003552,r,r,45,1,f,2022-03-10_19h14.06.425,HW1_Rostami_810100355,2022.1.1,60.07701872298738,
80.bmp,"(1.74, -3)","(3.49, 3.49)",0,0,0,0,0,59,59,110,,,,,,,,,,,,,,,359.76142290001735,None,360.2609956000233,360.3105143000139,p,1.0698171999538317,360.2609956000233,None,,,,,,,,,,,,,,,,,,,8101003552,r,r,45,1,f,2022-03-10_19h14.06.425,HW1_Rostami_810100355,2022.1.1,60.07701872298738,
40.bmp,"(-3.49, 0)","(3.49, 3.49)",0,0,0,0,0,60,60,56,,,,,,,,,,,,,,,361.3596737999469,None,361.8592307999497,361.90922419994604,p,0.8840182999847457,361.8592307999497,None,,,,,,,,,,,,,,,,,,,8101003552,r,r,45,1,f,2022-03-10_19h14.06.425,HW1_Rostami_810100355,2022.1.1,60.07701872298738,
60.bmp,"(-5.25, 3.05)","(5.24, 5.24)",0,0,0,0,0,61,61,87,,,,,,,,,,,,,,,362.7751628999831,None,363.2746860999614,363.3245146999834,o,1.0378790999529883,363.2746860999614,None,,,,,,,,,,,,,,,,,,,8101003552,r,r,45,1,f,2022-03-10_19h14.06.425,HW1_Rostami_810100355,2022.1.1,60.07701872298738,
20.bmp,"(-3.49, 0)","(3.49, 3.49)",0,0,0,0,0,62,62,30,,,,,,,,,,,,,,,364.3404468999943,None,364.84020219999366,364.8899804999819,p,0.9143378000007942,364.84020219999366,None,,,,,,,,,,,,,,,,,,,8101003552,r,r,45,1,f,2022-03-10_19h14.06.425,HW1_Rostami_810100355,2022.1.1,60.07701872298738,
80.bmp,"(0, -6.11)","(5.24, 5.24)",0,0,0,0,0,63,63,115,,,,,,,,,,,,,,,365.77266449993476,None,366.2722453000024,366.3219721999485,p,4.953391499933787,366.2722453000024,None,,,,,,,,,,,,,,,,,,,8101003552,r,r,45,1,f,2022-03-10_19h14.06.425,HW1_Rostami_810100355,2022.1.1,60.07701872298738,
80.bmp,"(5.25, 3.05)","(5.24, 5.24)",0,0,0,0,0,64,64,111,,,,,,,,,,,,,,,371.2513903999934,None,371.7506076999707,371.8007553999778,o,1.532283499953337,371.7506076999707,None,,,,,,,,,,,,,,,,,,,8101003552,r,r,45,1,f,2022-03-10_19h14.06.425,HW1_Rostami_810100355,2022.1.1,60.07701872298738,
40.bmp,"(5.25, 3.05)","(5.24, 5.24)",0,0,0,0,0,65,65,59,,,,,,,,,,,,,,,373.29919119994156,None,373.79893819999415,373.8490802999586,p,1.6386140999384224,373.79893819999415,None,,,,,,,,,,,,,,,,,,,8101003552,r,r,45,1,f,2022-03-10_19h14.06.425,HW1_Rostami_810100355,2022.1.1,60.07701872298738,
50.bmp,"(3.49, 0)","(3.49, 3.49)",0,0,0,0,0,66,66,66,,,,,,,,,,,,,,,375.4641204000218,None,375.9639290999621,376.01358319993597,p,0.8362042000517249,375.9639290999621,None,,,,,,,,,,,,,,,,,,,8101003552,r,r,45,1,f,2022-03-10_19h14.06.425,HW1_Rostami_810100355,2022.1.1,60.07701872298738,
20.bmp,"(-1.74, 3)","(3.49, 3.49)",0,0,0,0,0,67,67,29,,,,,,,,,,,,,,,376.82975949998945,None,377.32908499997575,377.37904120003805,p,1.0293331999564543,377.32908499997575,None,,,,,,,,,,,,,,,,,,,8101003552,r,r,45,1,f,2022-03-10_19h14.06.425,HW1_Rostami_810100355,2022.1.1,60.07701872298738,
40.bmp,"(-1.74, -3)","(3.49, 3.49)",0,0,0,0,0,68,68,57,,,,,,,,,,,,,,,378.3779450999573,None,378.8778687999584,378.9277041000314,p,3.3962773999664932,378.8778687999584,None,,,,,,,,,,,,,,,,,,,8101003552,r,r,45,1,f,2022-03-10_19h14.06.425,HW1_Rostami_810100355,2022.1.1,60.07701872298738,
20.bmp,"(0, 0)","(2.18, 2.18)",0,0,0,0,0,69,69,26,,,,,,,,,,,,,,,382.29163280001376,None,382.7913763000397,382.8411492999876,o,0.8529652000870556,382.7913763000397,None,,,,,,,,,,,,,,,,,,,8101003552,r,r,45,1,f,2022-03-10_19h14.06.425,HW1_Rostami_810100355,2022.1.1,60.07701872298738,
20.bmp,"(5.25, -3.05)","(5.24, 5.24)",0,0,0,0,0,70,70,38,,,,,,,,,,,,,,,383.67383029998746,None,384.17329219996464,384.2231098000193,p,1.0317044999683276,384.17329219996464,None,,,,,,,,,,,,,,,,,,,8101003552,r,r,45,1,f,2022-03-10_19h14.06.425,HW1_Rostami_810100355,2022.1.1,60.07701872298738,
30.bmp,"(5.25, 3.05)","(5.24, 5.24)",0,0,0,0,0,71,71,46,,,,,,,,,,,,,,,385.222540399991,None,385.7220906999428,385.77213749999646,p,0.669880700064823,385.7220906999428,None,,,,,,,,,,,,,,,,,,,8101003552,r,r,45,1,f,2022-03-10_19h14.06.425,HW1_Rostami_810100355,2022.1.1,60.07701872298738,
20.bmp,"(1.74, -3)","(3.49, 3.49)",0,0,0,0,0,72,72,32,,,,,,,,,,,,,,,386.42121850000694,None,386.92092069995124,386.97094150003977,p,0.7153289000270888,386.92092069995124,None,,,,,,,,,,,,,,,,,,,8101003552,r,r,45,1,f,2022-03-10_19h14.06.425,HW1_Rostami_810100355,2022.1.1,60.07701872298738,
70.bmp,"(-5.25, 3.05)","(5.24, 5.24)",0,0,0,0,0,73,73,100,,,,,,,,,,,,,,,387.65363019995857,None,388.1529165999964,388.20270060002804,p,0.7517224000766873,388.1529165999964,None,,,,,,,,,,,,,,,,,,,8101003552,r,r,45,1,f,2022-03-10_19h14.06.425,HW1_Rostami_810100355,2022.1.1,60.07701872298738,
30.bmp,"(-1.74, -3)","(3.49, 3.49)",0,0,0,0,0,74,74,44,,,,,,,,,,,,,,,388.9359325999394,None,389.43562330002896,389.4852419999661,p,1.7765505000716075,389.43562330002896,None,,,,,,,,,,,,,,,,,,,8101003552,r,r,45,1,f,2022-03-10_19h14.06.425,HW1_Rostami_810100355,2022.1.1,60.07701872298738,
80.bmp,"(-1.74, -3)","(3.49, 3.49)",0,0,0,0,0,75,75,109,,,,,,,,,,,,,,,391.2337201000191,None,391.73347430001013,391.78334630001336,p,0.8661191000137478,391.73347430001013,None,,,,,,,,,,,,,,,,,,,8101003552,r,r,45,1,f,2022-03-10_19h14.06.425,HW1_Rostami_810100355,2022.1.1,60.07701872298738,
60.bmp,"(3.49, 0)","(3.49, 3.49)",0,0,0,0,0,76,76,79,,,,,,,,,,,,,,,392.61573439999484,None,393.11523009999655,393.1650536999805,p,1.4034016999648884,393.11523009999655,None,,,,,,,,,,,,,,,,,,,8101003552,r,r,45,1,f,2022-03-10_19h14.06.425,HW1_Rostami_810100355,2022.1.1,60.07701872298738,
60.bmp,"(5.25, 3.05)","(5.24, 5.24)",0,0,0,0,0,77,77,85,,,,,,,,,,,,,,,394.54780079994816,None,395.04746220004745,395.0972876000451,p,1.0178387999767438,395.04746220004745,None,,,,,,,,,,,,,,,,,,,8101003552,r,r,45,1,f,2022-03-10_19h14.06.425,HW1_Rostami_810100355,2022.1.1,60.07701872298738,
80.bmp,"(5.25, -3.05)","(5.24, 5.24)",0,0,0,0,0,78,78,116,,,,,,,,,,,,,,,396.096468099975,None,396.59624660003465,396.6459626000142,p,0.7431938000954688,396.59624660003465,None,,,,,,,,,,,,,,,,,,,8101003552,r,r,45,1,f,2022-03-10_19h14.06.425,HW1_Rostami_810100355,2022.1.1,60.07701872298738,
30.bmp,"(-5.25, 3.05)","(5.24, 5.24)",0,0,0,0,0,79,79,48,,,,,,,,,,,,,,,397.3619344000472,None,397.86132100003306,397.9109477000311,p,0.8701792999636382,397.86132100003306,None,,,,,,,,,,,,,,,,,,,8101003552,r,r,45,1,f,2022-03-10_19h14.06.425,HW1_Rostami_810100355,2022.1.1,60.07701872298738,
10.bmp,"(-1.74, 3)","(3.49, 3.49)",0,0,0,0,0,80,80,16,,,,,,,,,,,,,,,398.7603463999694,None,399.2601274999324,399.30992170004174,p,1.049310400034301,399.2601274999324,None,,,,,,,,,,,,,,,,,,,8101003552,r,r,45,1,f,2022-03-10_19h14.06.425,HW1_Rostami_810100355,2022.1.1,60.07701872298738,
30.bmp,"(-5.25, -3.05)","(5.24, 5.24)",0,0,0,0,0,81,81,49,,,,,,,,,,,,,,,400.3257813999662,None,400.8254427999491,400.8752997999545,p,0.8626021000090986,400.8254427999491,None,,,,,,,,,,,,,,,,,,,8101003552,r,r,45,1,f,2022-03-10_19h14.06.425,HW1_Rostami_810100355,2022.1.1,60.07701872298738,
30.bmp,"(5.25, -3.05)","(5.24, 5.24)",0,0,0,0,0,82,82,51,,,,,,,,,,,,,,,401.7080746999709,None,402.2077436000109,402.2573483999586,p,0.8217026999918744,402.2077436000109,None,,,,,,,,,,,,,,,,,,,8101003552,r,r,45,1,f,2022-03-10_19h14.06.425,HW1_Rostami_810100355,2022.1.1,60.07701872298738,
40.bmp,"(-1.74, 3)","(3.49, 3.49)",0,0,0,0,0,83,83,55,,,,,,,,,,,,,,,403.05689869995695,None,403.55641259998083,403.6062855999917,p,0.6212013999465853,403.55641259998083,None,,,,,,,,,,,,,,,,,,,8101003552,r,r,45,1,f,2022-03-10_19h14.06.425,HW1_Rostami_810100355,2022.1.1,60.07701872298738,
40.bmp,"(-5.25, 3.05)","(5.24, 5.24)",0,0,0,0,0,84,84,61,,,,,,,,,,,,,,,404.2056309999898,None,404.70535770000424,404.75515370001085,p,0.7915841999929398,404.70535770000424,None,,,,,,,,,,,,,,,,,,,8101003552,r,r,45,1,f,2022-03-10_19h14.06.425,HW1_Rostami_810100355,2022.1.1,60.07701872298738,
50.bmp,"(-1.74, 3)","(3.49, 3.49)",0,0,0,0,0,85,85,68,,,,,,,,,,,,,,,405.5214644999942,None,406.020923199947,406.0707812999608,o,1.7163602999644354,406.020923199947,None,,,,,,,,,,,,,,,,,,,8101003552,r,r,45,1,f,2022-03-10_19h14.06.425,HW1_Rostami_810100355,2022.1.1,60.07701872298738,
0.bmp,"(5.25, 3.05)","(5.24, 5.24)",0,0,0,0,0,86,86,7,,,,,,,,,,,,,,,407.7693274000194,None,408.26867779996246,408.3185086000012,p,0.8103979000588879,408.26867779996246,None,,,,,,,,,,,,,,,,,,,8101003552,r,r,45,1,f,2022-03-10_19h14.06.425,HW1_Rostami_810100355,2022.1.1,60.07701872298738,
80.bmp,"(1.74, 3)","(3.49, 3.49)",0,0,0,0,0,87,87,106,,,,,,,,,,,,,,,409.10158230003435,None,409.6008634000318,409.6513608000241,p,0.8424500999972224,409.6008634000318,None,,,,,,,,,,,,,,,,,,,8101003552,r,r,45,1,f,2022-03-10_19h14.06.425,HW1_Rostami_810100355,2022.1.1,60.07701872298738,
70.bmp,"(3.49, 0)","(3.49, 3.49)",0,0,0,0,0,88,88,92,,,,,,,,,,,,,,,410.46667700004764,None,410.96644540003035,411.01622510002926,p,0.8796978999162093,410.96644540003035,None,,,,,,,,,,,,,,,,,,,8101003552,r,r,45,1,f,2022-03-10_19h14.06.425,HW1_Rostami_810100355,2022.1.1,60.07701872298738,
0.bmp,"(5.25, -3.05)","(5.24, 5.24)",0,0,0,0,0,89,89,12,,,,,,,,,,,,,,,411.86594879999757,None,412.36556179996114,412.4154456999386,p,0.8090923000127077,412.36556179996114,None,,,,,,,,,,,,,,,,,,,8101003552,r,r,45,1,f,2022-03-10_19h14.06.425,HW1_Rostami_810100355,2022.1.1,60.07701872298738,
60.bmp,"(-1.74, -3)","(3.49, 3.49)",0,0,0,0,0,90,90,83,,,,,,,,,,,,,,,413.19787170004565,None,413.697457900038,413.7474205000326,p,0.6448972000507638,413.697457900038,None,,,,,,,,,,,,,,,,,,,8101003552,r,r,45,1,f,2022-03-10_19h14.06.425,HW1_Rostami_810100355,2022.1.1,60.07701872298738,
0.bmp,"(-3.49, 0)","(3.49, 3.49)",0,0,0,0,0,91,91,4,,,,,,,,,,,,,,,414.36375919997226,None,414.86350570002105,414.913035399979,p,0.9137648000614718,414.86350570002105,None,,,,,,,,,,,,,,,,,,,8101003552,r,r,45,1,f,2022-03-10_19h14.06.425,HW1_Rostami_810100355,2022.1.1,60.07701872298738,
60.bmp,"(0, -6.11)","(5.24, 5.24)",0,0,0,0,0,92,92,89,,,,,,,,,,,,,,,415.7957740999991,None,416.2954862000188,416.3450530000264,p,0.6463126000016928,416.2954862000188,None,,,,,,,,,,,,,,,,,,,8101003552,r,r,45,1,f,2022-03-10_19h14.06.425,HW1_Rostami_810100355,2022.1.1,60.07701872298738,
60.bmp,"(-1.74, 3)","(3.49, 3.49)",0,0,0,0,0,93,93,81,,,,,,,,,,,,,,,416.9615046000108,None,417.4608943000203,417.5107071000384,p,0.7619759999215603,417.4608943000203,None,,,,,,,,,,,,,,,,,,,8101003552,r,r,45,1,f,2022-03-10_19h14.06.425,HW1_Rostami_810100355,2022.1.1,60.07701872298738,
50.bmp,"(-3.49, 0)","(3.49, 3.49)",0,0,0,0,0,94,94,69,,,,,,,,,,,,,,,418.2432017000392,None,418.74333970004227,418.7929751999909,p,0.829934100038372,418.74333970004227,None,,,,,,,,,,,,,,,,,,,8101003552,r,r,45,1,f,2022-03-10_19h14.06.425,HW1_Rostami_810100355,2022.1.1,60.07701872298738,
80.bmp,"(-1.74, 3)","(3.49, 3.49)",0,0,0,0,0,95,95,107,,,,,,,,,,,,,,,419.59232659998816,None,420.09215949999634,420.1417400999926,p,1.0286986000137404,420.09215949999634,None,,,,,,,,,,,,,,,,,,,8101003552,r,r,45,1,f,2022-03-10_19h14.06.425,HW1_Rostami_810100355,2022.1.1,60.07701872298738,
0.bmp,"(-1.74, -3)","(3.49, 3.49)",0,0,0,0,0,96,96,5,,,,,,,,,,,,,,,421.1413163000252,None,421.64080930000637,421.69045989995357,p,0.7419257999863476,421.64080930000637,None,,,,,,,,,,,,,,,,,,,8101003552,r,r,45,1,f,2022-03-10_19h14.06.425,HW1_Rostami_810100355,2022.1.1,60.07701872298738,
40.bmp,"(1.74, 3)","(3.49, 3.49)",0,0,0,0,0,97,97,54,,,,,,,,,,,,,,,422.40658129996154,None,422.9061710999813,422.9560165000148,p,1.084026399999857,422.9061710999813,None,,,,,,,,,,,,,,,,,,,8101003552,r,r,45,1,f,2022-03-10_19h14.06.425,HW1_Rostami_810100355,2022.1.1,60.07701872298738,
10.bmp,"(0, 0)","(2.18, 2.18)",0,0,0,0,0,98,98,13,,,,,,,,,,,,,,,424.0221673999913,None,424.5216336000012,424.57158660003915,o,1.364667300018482,424.5216336000012,None,,,,,,,,,,,,,,,,,,,8101003552,r,r,45,1,f,2022-03-10_19h14.06.425,HW1_Rostami_810100355,2022.1.1,60.07701872298738,
30.bmp,"(1.74, 3)","(3.49, 3.49)",0,0,0,0,0,99,99,41,,,,,,,,,,,,,,,425.9038692000322,None,426.40343780000694,426.4530655000126,p,0.8956982000963762,426.40343780000694,None,,,,,,,,,,,,,,,,,,,8101003552,r,r,45,1,f,2022-03-10_19h14.06.425,HW1_Rostami_810100355,2022.1.1,60.07701872298738,
80.bmp,"(3.49, 0)","(3.49, 3.49)",0,0,0,0,0,100,100,105,,,,,,,,,,,,,,,427.31900110002607,None,427.8187976999907,427.8684210999636,o,1.152488199993968,427.8187976999907,None,,,,,,,,,,,,,,,,,,,8101003552,r,r,45,1,f,2022-03-10_19h14.06.425,HW1_Rostami_810100355,2022.1.1,60.07701872298738,
50.bmp,"(5.25, -3.05)","(5.24, 5.24)",0,0,0,0,0,101,101,77,,,,,,,,,,,,,,,429.0008095999947,None,429.50046739995014,429.5503150000004,p,1.0224509000545368,429.50046739995014,None,,,,,,,,,,,,,,,,,,,8101003552,r,r,45,1,f,2022-03-10_19h14.06.425,HW1_Rostami_810100355,2022.1.1,60.07701872298738,
60.bmp,"(1.74, -3)","(3.49, 3.49)",0,0,0,0,0,102,102,84,,,,,,,,,,,,,,,430.54966389993206,None,431.0490170000121,431.0991146999877,o,0.9116818000329658,431.0490170000121,None,,,,,,,,,,,,,,,,,,,8101003552,r,r,45,1,f,2022-03-10_19h14.06.425,HW1_Rostami_810100355,2022.1.1,60.07701872298738,
70.bmp,"(1.74, 3)","(3.49, 3.49)",0,0,0,0,0,103,103,93,,,,,,,,,,,,,,,431.9816515999846,None,432.481388199958,432.5310920999618,o,1.236900300020352,432.481388199958,None,,,,,,,,,,,,,,,,,,,8101003552,r,r,45,1,f,2022-03-10_19h14.06.425,HW1_Rostami_810100355,2022.1.1,60.07701872298738,
80.bmp,"(-5.25, 3.05)","(5.24, 5.24)",0,0,0,0,0,104,104,113,,,,,,,,,,,,,,,433.74651510000695,None,434.2463160000043,434.29618820000906,o,1.0570546999806538,434.2463160000043,None,,,,,,,,,,,,,,,,,,,8101003552,r,r,45,1,f,2022-03-10_19h14.06.425,HW1_Rostami_810100355,2022.1.1,60.07701872298738,
0.bmp,"(-5.25, -3.05)","(5.24, 5.24)",0,0,0,0,0,105,105,10,,,,,,,,,,,,,,,435.32845399994403,None,435.8285013999557,435.87805539998226,p,1.4621370999375358,435.8285013999557,None,,,,,,,,,,,,,,,,,,,8101003552,r,r,45,1,f,2022-03-10_19h14.06.425,HW1_Rostami_810100355,2022.1.1,60.07701872298738,
0.bmp,"(1.74, 3)","(3.49, 3.49)",0,0,0,0,0,106,106,2,,,,,,,,,,,,,,,437.3101771000074,None,437.8102203999879,437.8598032000009,p,1.1403042000019923,437.8102203999879,None,,,,,,,,,,,,,,,,,,,8101003552,r,r,45,1,f,2022-03-10_19h14.06.425,HW1_Rostami_810100355,2022.1.1,60.07701872298738,
0.bmp,"(-1.74, 3)","(3.49, 3.49)",0,0,0,0,0,107,107,3,,,,,,,,,,,,,,,438.97532670001965,None,439.47527079994325,439.5253408999415,p,0.7993510999949649,439.47527079994325,None,,,,,,,,,,,,,,,,,,,8101003552,r,r,45,1,f,2022-03-10_19h14.06.425,HW1_Rostami_810100355,2022.1.1,60.07701872298738,
30.bmp,"(0, 0)","(2.18, 2.18)",0,0,0,0,0,108,108,39,,,,,,,,,,,,,,,440.29135620000307,None,440.7908110000426,440.84056489996146,p,0.9120963000459597,440.7908110000426,None,,,,,,,,,,,,,,,,,,,8101003552,r,r,45,1,f,2022-03-10_19h14.06.425,HW1_Rostami_810100355,2022.1.1,60.07701872298738,
30.bmp,"(-1.74, 3)","(3.49, 3.49)",0,0,0,0,0,109,109,42,,,,,,,,,,,,,,,441.72306310001295,None,442.2228813000256,442.272618399933,p,0.5673835999332368,442.2228813000256,None,,,,,,,,,,,,,,,,,,,8101003552,r,r,45,1,f,2022-03-10_19h14.06.425,HW1_Rostami_810100355,2022.1.1,60.07701872298738,
70.bmp,"(5.25, 3.05)","(5.24, 5.24)",0,0,0,0,0,110,110,98,,,,,,,,,,,,,,,442.82220229995437,None,443.32190300000366,443.371474100044,p,1.3469181000255048,443.32190300000366,None,,,,,,,,,,,,,,,,,,,8101003552,r,r,45,1,f,2022-03-10_19h14.06.425,HW1_Rostami_810100355,2022.1.1,60.07701872298738,
70.bmp,"(-1.74, 3)","(3.49, 3.49)",0,0,0,0,0,111,111,94,,,,,,,,,,,,,,,444.687027500011,None,445.18683050002437,445.23667489993386,p,0.6872399999992922,445.18683050002437,None,,,,,,,,,,,,,,,,,,,8101003552,r,r,45,1,f,2022-03-10_19h14.06.425,HW1_Rostami_810100355,2022.1.1,60.07701872298738,
50.bmp,"(5.25, 3.05)","(5.24, 5.24)",0,0,0,0,0,112,112,72,,,,,,,,,,,,,,,445.9025521000149,None,446.4025101000443,446.45228640001733,p,0.7799982000142336,446.4025101000443,None,,,,,,,,,,,,,,,,,,,8101003552,r,r,45,1,f,2022-03-10_19h14.06.425,HW1_Rostami_810100355,2022.1.1,60.07701872298738,
0.bmp,"(-5.25, 3.05)","(5.24, 5.24)",0,0,0,0,0,113,113,9,,,,,,,,,,,,,,,447.2017204000149,None,447.70152030000463,447.75131500000134,p,0.825731199933216,447.70152030000463,None,,,,,,,,,,,,,,,,,,,8101003552,r,r,45,1,f,2022-03-10_19h14.06.425,HW1_Rostami_810100355,2022.1.1,60.07701872298738,
50.bmp,"(0, 0)","(2.18, 2.18)",0,0,0,0,0,114,114,65,,,,,,,,,,,,,,,448.55012709996663,None,449.05001679994166,449.10023510002065,p,0.659994599991478,449.05001679994166,None,,,,,,,,,,,,,,,,,,,8101003552,r,r,45,1,f,2022-03-10_19h14.06.425,HW1_Rostami_810100355,2022.1.1,60.07701872298738,
60.bmp,"(1.74, 3)","(3.49, 3.49)",0,0,0,0,0,115,115,80,,,,,,,,,,,,,,,449.7327913000481,None,450.2322466999758,450.28209100000095,p,0.5263228999683633,450.2322466999758,None,,,,,,,,,,,,,,,,,,,8101003552,r,r,45,1,f,2022-03-10_19h14.06.425,HW1_Rostami_810100355,2022.1.1,60.07701872298738,
0.bmp,"(0, -6.11)","(5.24, 5.24)",0,0,0,0,0,116,116,11,,,,,,,,,,,,,,,450.7818737999769,None,451.28144940000493,451.3313620999688,p,0.9637954999925569,451.28144940000493,None,,,,,,,,,,,,,,,,,,,8101003552,r,r,45,1,f,2022-03-10_19h14.06.425,HW1_Rostami_810100355,2022.1.1,60.07701872298738,
30.bmp,"(0, 6.11)","(5.24, 5.24)",0,0,0,0,1,0,117,47,,,,,,,,,,,,,,,452.263923099963,None,452.7636518999934,452.8134527000366,p,0.6866044999333099,452.7636518999934,None,,,,,,,,,,,,,,,,,,,8101003552,r,r,45,1,f,2022-03-10_19h14.06.425,HW1_Rostami_810100355,2022.1.1,60.07701872298738,
70.bmp,"(-3.49, 0)","(3.49, 3.49)",0,0,0,0,1,1,118,95,,,,,,,,,,,,,,,453.4796433999436,None,453.9792042999761,454.02913889999036,p,1.242744000046514,453.9792042999761,None,,,,,,,,,,,,,,,,,,,8101003552,r,r,45,1,f,2022-03-10_19h14.06.425,HW1_Rostami_810100355,2022.1.1,60.07701872298738,
30.bmp,"(5.25, 3.05)","(5.24, 5.24)",0,0,0,0,1,2,119,46,,,,,,,,,,,,,,,455.2444275999442,None,455.7442807999905,455.7941547000082,p,0.7209152999566868,455.7442807999905,None,,,,,,,,,,,,,,,,,,,8101003552,r,r,45,1,f,2022-03-10_19h14.06.425,HW1_Rostami_810100355,2022.1.1,60.07701872298738,
20.bmp,"(-1.74, 3)","(3.49, 3.49)",0,0,0,0,1,3,120,29,,,,,,,,,,,,,,,456.4937479000073,None,456.99324790004175,457.04301050002687,o,2.1572252000914887,456.99324790004175,None,,,,,,,,,,,,,,,,,,,8101003552,r,r,45,1,f,2022-03-10_19h14.06.425,HW1_Rostami_810100355,2022.1.1,60.07701872298738,
10.bmp,"(3.49, 0)","(3.49, 3.49)",0,0,0,0,1,4,121,14,,,,,,,,,,,,,,,459.1748895000201,None,459.67421610001475,459.7240554000018,p,0.7564697999041528,459.67421610001475,None,,,,,,,,,,,,,,,,,,,8101003552,r,r,45,1,f,2022-03-10_19h14.06.425,HW1_Rostami_810100355,2022.1.1,60.07701872298738,
60.bmp,"(0, -6.11)","(5.24, 5.24)",0,0,0,0,1,5,122,89,,,,,,,,,,,,,,,460.45673700002953,None,460.95649919996504,461.0063131999923,p,1.2842597999842837,460.95649919996504,None,,,,,,,,,,,,,,,,,,,8101003552,r,r,45,1,f,2022-03-10_19h14.06.425,HW1_Rostami_810100355,2022.1.1,60.07701872298738,
30.bmp,"(5.25, -3.05)","(5.24, 5.24)",0,0,0,0,1,6,123,51,,,,,,,,,,,,,,,462.27192770002875,None,462.7717094999971,462.82147299998906,p,0.6278749000048265,462.7717094999971,None,,,,,,,,,,,,,,,,,,,8101003552,r,r,45,1,f,2022-03-10_19h14.06.425,HW1_Rostami_810100355,2022.1.1,60.07701872298738,
30.bmp,"(-5.25, 3.05)","(5.24, 5.24)",0,0,0,0,1,7,124,48,,,,,,,,,,,,,,,463.420900600031,None,463.92068470001686,463.9706745999865,p,0.6426665999460965,463.92068470001686,None,,,,,,,,,,,,,,,,,,,8101003552,r,r,45,1,f,2022-03-10_19h14.06.425,HW1_Rostami_810100355,2022.1.1,60.07701872298738,
0.bmp,"(0, -6.11)","(5.24, 5.24)",0,0,0,0,1,8,125,11,,,,,,,,,,,,,,,464.5864324000431,None,465.08612029999495,465.1359759999905,p,0.5759908999316394,465.08612029999495,None,,,,,,,,,,,,,,,,,,,8101003552,r,r,45,1,f,2022-03-10_19h14.06.425,HW1_Rostami_810100355,2022.1.1,60.07701872298738,
0.bmp,"(5.25, 3.05)","(5.24, 5.24)",0,0,0,0,1,9,126,7,,,,,,,,,,,,,,,465.68557029997464,None,466.18504430004396,466.2350073000416,p,0.5220703000668436,466.18504430004396,None,,,,,,,,,,,,,,,,,,,8101003552,r,r,45,1,f,2022-03-10_19h14.06.425,HW1_Rostami_810100355,2022.1.1,60.07701872298738,
0.bmp,"(-1.74, -3)","(3.49, 3.49)",0,0,0,0,1,10,127,5,,,,,,,,,,,,,,,466.7346989000216,None,467.23465510003734,467.2844723999733,p,0.5587478000670671,467.23465510003734,None,,,,,,,,,,,,,,,,,,,8101003552,r,r,45,1,f,2022-03-10_19h14.06.425,HW1_Rostami_810100355,2022.1.1,60.07701872298738,
30.bmp,"(1.74, -3)","(3.49, 3.49)",0,0,0,0,1,11,128,45,,,,,,,,,,,,,,,467.8172564000124,None,468.3165194999892,468.36634619999677,p,0.45551829994656146,468.3165194999892,None,,,,,,,,,,,,,,,,,,,8101003552,r,r,45,1,f,2022-03-10_19h14.06.425,HW1_Rostami_810100355,2022.1.1,60.07701872298738,
10.bmp,"(5.25, -3.05)","(5.24, 5.24)",0,0,0,0,1,12,129,25,,,,,,,,,,,,,,,468.79977000004146,None,469.2993639999768,469.3489489000058,p,0.520002800039947,469.2993639999768,None,,,,,,,,,,,,,,,,,,,8101003552,r,r,45,1,f,2022-03-10_19h14.06.425,HW1_Rostami_810100355,2022.1.1,60.07701872298738,
40.bmp,"(3.49, 0)","(3.49, 3.49)",0,0,0,0,1,13,130,53,,,,,,,,,,,,,,,469.8487950999988,None,470.34838760003913,470.39816830004565,p,0.4961578000802547,470.34838760003913,None,,,,,,,,,,,,,,,,,,,8101003552,r,r,45,1,f,2022-03-10_19h14.06.425,HW1_Rostami_810100355,2022.1.1,60.07701872298738,
50.bmp,"(0, -6.11)","(5.24, 5.24)",0,0,0,0,1,14,131,76,,,,,,,,,,,,,,,470.86433420004323,None,471.3640017999569,471.41378679999616,p,0.5915323999943212,471.3640017999569,None,,,,,,,,,,,,,,,,,,,8101003552,r,r,45,1,f,2022-03-10_19h14.06.425,HW1_Rostami_810100355,2022.1.1,60.07701872298738,
30.bmp,"(-5.25, -3.05)","(5.24, 5.24)",0,0,0,0,1,15,132,49,,,,,,,,,,,,,,,471.9797351999441,None,472.4798872999381,472.52975680003874,p,0.5071214999770746,472.4798872999381,None,,,,,,,,,,,,,,,,,,,8101003552,r,r,45,1,f,2022-03-10_19h14.06.425,HW1_Rostami_810100355,2022.1.1,60.07701872298738,
80.bmp,"(0, 6.11)","(5.24, 5.24)",0,0,0,0,1,16,133,112,,,,,,,,,,,,,,,473.0124697999563,None,473.5121986999875,473.5621457999805,p,0.5188093999167904,473.5121986999875,None,,,,,,,,,,,,,,,,,,,8101003552,r,r,45,1,f,2022-03-10_19h14.06.425,HW1_Rostami_810100355,2022.1.1,60.07701872298738,
80.bmp,"(-5.25, 3.05)","(5.24, 5.24)",0,0,0,0,1,17,134,113,,,,,,,,,,,,,,,474.0614860999631,None,474.56123180000577,474.61105760000646,o,0.9343798999907449,474.56123180000577,None,,,,,,,,,,,,,,,,,,,8101003552,r,r,45,1,f,2022-03-10_19h14.06.425,HW1_Rostami_810100355,2022.1.1,60.07701872298738,
20.bmp,"(1.74, 3)","(3.49, 3.49)",0,0,0,0,1,18,135,28,,,,,,,,,,,,,,,475.5266412999481,None,476.0268674000399,476.0765403000405,p,0.8675629000645131,476.0268674000399,None,,,,,,,,,,,,,,,,,,,8101003552,r,r,45,1,f,2022-03-10_19h14.06.425,HW1_Rostami_810100355,2022.1.1,60.07701872298738,
10.bmp,"(1.74, 3)","(3.49, 3.49)",0,0,0,0,1,19,136,15,,,,,,,,,,,,,,,476.92560309998225,None,477.42517259996384,477.4749786000466,p,0.6424455000087619,477.42517259996384,None,,,,,,,,,,,,,,,,,,,8101003552,r,r,45,1,f,2022-03-10_19h14.06.425,HW1_Rostami_810100355,2022.1.1,60.07701872298738,
70.bmp,"(5.25, -3.05)","(5.24, 5.24)",0,0,0,0,1,20,137,103,,,,,,,,,,,,,,,478.0913811000064,None,478.5908970000455,478.6407089999411,p,0.5835161000723019,478.5908970000455,None,,,,,,,,,,,,,,,,,,,8101003552,r,r,45,1,f,2022-03-10_19h14.06.425,HW1_Rostami_810100355,2022.1.1,60.07701872298738,
60.bmp,"(1.74, -3)","(3.49, 3.49)",0,0,0,0,1,21,138,84,,,,,,,,,,,,,,,479.20724100002553,None,479.70692449994385,479.7568621999817,p,0.6892862999811769,479.70692449994385,None,,,,,,,,,,,,,,,,,,,8101003552,r,r,45,1,f,2022-03-10_19h14.06.425,HW1_Rostami_810100355,2022.1.1,60.07701872298738,
40.bmp,"(1.74, -3)","(3.49, 3.49)",0,0,0,0,1,22,139,58,,,,,,,,,,,,,,,480.42266469995957,None,480.92262309999205,480.97216170001775,p,0.7048447999404743,480.92262309999205,None,,,,,,,,,,,,,,,,,,,8101003552,r,r,45,1,f,2022-03-10_19h14.06.425,HW1_Rostami_810100355,2022.1.1,60.07701872298738,
70.bmp,"(-1.74, 3)","(3.49, 3.49)",0,0,0,0,1,23,140,94,,,,,,,,,,,,,,,481.65472680004314,None,482.15482970001176,482.2044327999465,p,0.6661872999975458,482.15482970001176,None,,,,,,,,,,,,,,,,,,,8101003552,r,r,45,1,f,2022-03-10_19h14.06.425,HW1_Rostami_810100355,2022.1.1,60.07701872298738,
0.bmp,"(1.74, 3)","(3.49, 3.49)",0,0,0,0,1,24,141,2,,,,,,,,,,,,,,,482.8375880999956,None,483.33699169999454,483.38683710002806,p,0.5777062999550253,483.33699169999454,None,,,,,,,,,,,,,,,,,,,8101003552,r,r,45,1,f,2022-03-10_19h14.06.425,HW1_Rostami_810100355,2022.1.1,60.07701872298738,
60.bmp,"(5.25, -3.05)","(5.24, 5.24)",0,0,0,0,1,25,142,90,,,,,,,,,,,,,,,483.9365856000222,None,484.43593479995616,484.48600919998717,p,0.671608200063929,484.43593479995616,None,,,,,,,,,,,,,,,,,,,8101003552,r,r,45,1,f,2022-03-10_19h14.06.425,HW1_Rostami_810100355,2022.1.1,60.07701872298738,
50.bmp,"(0, 6.11)","(5.24, 5.24)",0,0,0,0,1,26,143,73,,,,,,,,,,,,,,,485.13508479995653,None,485.6349344999762,485.68491029995494,p,0.46173219999764115,485.6349344999762,None,,,,,,,,,,,,,,,,,,,8101003552,r,r,45,1,f,2022-03-10_19h14.06.425,HW1_Rostami_810100355,2022.1.1,60.07701872298738,
0.bmp,"(0, 6.11)","(5.24, 5.24)",0,0,0,0,1,27,144,8,,,,,,,,,,,,,,,486.1176617000019,None,486.6174924999941,486.66728299995884,p,0.7261245000408962,486.6174924999941,None,,,,,,,,,,,,,,,,,,,8101003552,r,r,45,1,f,2022-03-10_19h14.06.425,HW1_Rostami_810100355,2022.1.1,60.07701872298738,
10.bmp,"(0, -6.11)","(5.24, 5.24)",0,0,0,0,1,28,145,24,,,,,,,,,,,,,,,487.36711620003916,None,487.8663303999929,487.91615830000956,p,0.7786306999623775,487.8663303999929,None,,,,,,,,,,,,,,,,,,,8101003552,r,r,45,1,f,2022-03-10_19h14.06.425,HW1_Rostami_810100355,2022.1.1,60.07701872298738,
80.bmp,"(-1.74, 3)","(3.49, 3.49)",0,0,0,0,1,29,146,107,,,,,,,,,,,,,,,488.66592749999836,None,489.16515779995825,489.2149894000031,p,1.051756800035946,489.16515779995825,None,,,,,,,,,,,,,,,,,,,8101003552,r,r,45,1,f,2022-03-10_19h14.06.425,HW1_Rostami_810100355,2022.1.1,60.07701872298738,
40.bmp,"(1.74, 3)","(3.49, 3.49)",0,0,0,0,1,30,147,54,,,,,,,,,,,,,,,490.2473154000472,None,490.7470832000254,490.7968436999945,p,0.6487413999857381,490.7470832000254,None,,,,,,,,,,,,,,,,,,,8101003552,r,r,45,1,f,2022-03-10_19h14.06.425,HW1_Rostami_810100355,2022.1.1,60.07701872298738,
0.bmp,"(-1.74, 3)","(3.49, 3.49)",0,0,0,0,1,31,148,3,,,,,,,,,,,,,,,491.41308440000284,None,491.9127727999585,491.9625947000459,p,1.0480574999237433,491.9127727999585,None,,,,,,,,,,,,,,,,,,,8101003552,r,r,45,1,f,2022-03-10_19h14.06.425,HW1_Rostami_810100355,2022.1.1,60.07701872298738,
40.bmp,"(-1.74, -3)","(3.49, 3.49)",0,0,0,0,1,32,149,57,,,,,,,,,,,,,,,492.97840120003093,None,493.47827980003785,493.5279428999638,p,0.45840540004428476,493.47827980003785,None,,,,,,,,,,,,,,,,,,,8101003552,r,r,45,1,f,2022-03-10_19h14.06.425,HW1_Rostami_810100355,2022.1.1,60.07701872298738,
40.bmp,"(-3.49, 0)","(3.49, 3.49)",0,0,0,0,1,33,150,56,,,,,,,,,,,,,,,493.9609669999918,None,494.46058449998964,494.51028449996375,p,0.6157281000632793,494.46058449998964,None,,,,,,,,,,,,,,,,,,,8101003552,r,r,45,1,f,2022-03-10_19h14.06.425,HW1_Rostami_810100355,2022.1.1,60.07701872298738,
80.bmp,"(-1.74, -3)","(3.49, 3.49)",0,0,0,0,1,34,151,109,,,,,,,,,,,,,,,495.0934733999893,None,495.5927467000438,495.6426480000373,p,0.4676200000103563,495.5927467000438,None,,,,,,,,,,,,,,,,,,,8101003552,r,r,45,1,f,2022-03-10_19h14.06.425,HW1_Rostami_810100355,2022.1.1,60.07701872298738,
50.bmp,"(0, 0)","(2.18, 2.18)",0,0,0,0,1,35,152,65,,,,,,,,,,,,,,,496.0925662999507,None,496.5922363999998,496.6420761999907,p,0.6126251999521628,496.5922363999998,None,,,,,,,,,,,,,,,,,,,8101003552,r,r,45,1,f,2022-03-10_19h14.06.425,HW1_Rostami_810100355,2022.1.1,60.07701872298738,
70.bmp,"(-5.25, 3.05)","(5.24, 5.24)",0,0,0,0,1,36,153,100,,,,,,,,,,,,,,,497.2246196999913,None,497.7246392000234,497.7744939000113,p,0.6052810999099165,497.7246392000234,None,,,,,,,,,,,,,,,,,,,8101003552,r,r,45,1,f,2022-03-10_19h14.06.425,HW1_Rostami_810100355,2022.1.1,60.07701872298738,
50.bmp,"(-1.74, -3)","(3.49, 3.49)",0,0,0,0,1,37,154,70,,,,,,,,,,,,,,,498.35687769996,None,498.8570716000395,498.9068210000405,p,0.6684325999813154,498.8570716000395,None,,,,,,,,,,,,,,,,,,,8101003552,r,r,45,1,f,2022-03-10_19h14.06.425,HW1_Rostami_810100355,2022.1.1,60.07701872298738,
20.bmp,"(3.49, 0)","(3.49, 3.49)",0,0,0,0,1,38,155,27,,,,,,,,,,,,,,,499.55598309997004,None,500.05601519998163,500.10588749998715,p,0.5373233000282198,500.05601519998163,None,,,,,,,,,,,,,,,,,,,8101003552,r,r,45,1,f,2022-03-10_19h14.06.425,HW1_Rostami_810100355,2022.1.1,60.07701872298738,
50.bmp,"(-5.25, -3.05)","(5.24, 5.24)",0,0,0,0,1,39,156,75,,,,,,,,,,,,,,,500.6217987999553,None,501.12139009998646,501.1712492000079,o,0.9097315999679267,501.12139009998646,None,,,,,,,,,,,,,,,,,,,8101003552,r,r,45,1,f,2022-03-10_19h14.06.425,HW1_Rostami_810100355,2022.1.1,60.07701872298738,
50.bmp,"(1.74, -3)","(3.49, 3.49)",0,0,0,0,1,40,157,71,,,,,,,,,,,,,,,502.0537863000063,None,502.5537974999752,502.6035944999894,p,0.7144778999499977,502.5537974999752,None,,,,,,,,,,,,,,,,,,,8101003552,r,r,45,1,f,2022-03-10_19h14.06.425,HW1_Rostami_810100355,2022.1.1,60.07701872298738,
20.bmp,"(0, 6.11)","(5.24, 5.24)",0,0,0,0,1,41,158,34,,,,,,,,,,,,,,,503.28635840001516,None,503.78613070002757,503.8356764999917,p,0.6041857999516651,503.78613070002757,None,,,,,,,,,,,,,,,,,,,8101003552,r,r,45,1,f,2022-03-10_19h14.06.425,HW1_Rostami_810100355,2022.1.1,60.07701872298738,
0.bmp,"(-5.25, -3.05)","(5.24, 5.24)",0,0,0,0,1,42,159,10,,,,,,,,,,,,,,,504.41866099997424,None,504.9182849000208,504.9681191999698,p,0.8861801000311971,504.9182849000208,None,,,,,,,,,,,,,,,,,,,8101003552,r,r,45,1,f,2022-03-10_19h14.06.425,HW1_Rostami_810100355,2022.1.1,60.07701872298738,
60.bmp,"(1.74, 3)","(3.49, 3.49)",0,0,0,0,1,43,160,80,,,,,,,,,,,,,,,505.8339662000071,None,506.33360799995717,506.3834412000142,p,0.48530369997024536,506.33360799995717,None,,,,,,,,,,,,,,,,,,,8101003552,r,r,45,1,f,2022-03-10_19h14.06.425,HW1_Rostami_810100355,2022.1.1,60.07701872298738,
80.bmp,"(-5.25, -3.05)","(5.24, 5.24)",0,0,0,0,1,44,161,114,,,,,,,,,,,,,,,506.8495918000117,None,507.3492683999939,507.3991670999676,o,0.8129660999402404,507.3492683999939,None,,,,,,,,,,,,,,,,,,,8101003552,r,r,45,1,f,2022-03-10_19h14.06.425,HW1_Rostami_810100355,2022.1.1,60.07701872298738,
30.bmp,"(-3.49, 0)","(3.49, 3.49)",0,0,0,0,1,45,162,43,,,,,,,,,,,,,,,508.1816222999478,None,508.68176730000414,508.7315960000269,o,0.9220535999629647,508.68176730000414,None,,,,,,,,,,,,,,,,,,,8101003552,r,r,45,1,f,2022-03-10_19h14.06.425,HW1_Rostami_810100355,2022.1.1,60.07701872298738,
50.bmp,"(1.74, 3)","(3.49, 3.49)",0,0,0,0,1,46,163,67,,,,,,,,,,,,,,,509.630658900016,None,510.1303662999999,510.18004420003854,p,0.7371181000489742,510.1303662999999,None,,,,,,,,,,,,,,,,,,,8101003552,r,r,45,1,f,2022-03-10_19h14.06.425,HW1_Rostami_810100355,2022.1.1,60.07701872298738,
50.bmp,"(5.25, -3.05)","(5.24, 5.24)",0,0,0,0,1,47,164,77,,,,,,,,,,,,,,,510.8959817000432,None,511.39604489994235,511.44557059998624,p,0.7977171000093222,511.39604489994235,None,,,,,,,,,,,,,,,,,,,8101003552,r,r,45,1,f,2022-03-10_19h14.06.425,HW1_Rostami_810100355,2022.1.1,60.07701872298738,
40.bmp,"(-1.74, 3)","(3.49, 3.49)",0,0,0,0,1,48,165,55,,,,,,,,,,,,,,,512.211830999935,None,512.7112288000062,512.7611314000096,o,0.9443695000372827,512.7112288000062,None,,,,,,,,,,,,,,,,,,,8101003552,r,r,45,1,f,2022-03-10_19h14.06.425,HW1_Rostami_810100355,2022.1.1,60.07701872298738,
70.bmp,"(0, 6.11)","(5.24, 5.24)",0,0,0,0,1,49,166,99,,,,,,,,,,,,,,,513.6771253000479,None,514.1766510000452,514.226672800025,p,0.8161888000322506,514.1766510000452,None,,,,,,,,,,,,,,,,,,,8101003552,r,r,45,1,f,2022-03-10_19h14.06.425,HW1_Rostami_810100355,2022.1.1,60.07701872298738,
20.bmp,"(-5.25, 3.05)","(5.24, 5.24)",0,0,0,0,1,50,167,35,,,,,,,,,,,,,,,515.0095158000477,None,515.5088070000056,515.5586644000141,p,1.113526099943556,515.5088070000056,None,,,,,,,,,,,,,,,,,,,8101003552,r,r,45,1,f,2022-03-10_19h14.06.425,HW1_Rostami_810100355,2022.1.1,60.07701872298738,
70.bmp,"(0, 0)","(2.18, 2.18)",0,0,0,0,1,51,168,91,,,,,,,,,,,,,,,516.6409689999418,None,517.1407626,517.1904244000325,p,0.5664290999993682,517.1407626,None,,,,,,,,,,,,,,,,,,,8101003552,r,r,45,1,f,2022-03-10_19h14.06.425,HW1_Rostami_810100355,2022.1.1,60.07701872298738,
20.bmp,"(-3.49, 0)","(3.49, 3.49)",0,0,0,0,1,52,169,30,,,,,,,,,,,,,,,517.7235904999543,None,518.2229840999935,518.272818199941,p,0.8034997000358999,518.2229840999935,None,,,,,,,,,,,,,,,,,,,8101003552,r,r,45,1,f,2022-03-10_19h14.06.425,HW1_Rostami_810100355,2022.1.1,60.07701872298738,
60.bmp,"(-5.25, -3.05)","(5.24, 5.24)",0,0,0,0,1,53,170,88,,,,,,,,,,,,,,,519.0559986999724,None,519.5556565000443,519.6055879000342,o,0.9371609000954777,519.5556565000443,None,,,,,,,,,,,,,,,,,,,8101003552,r,r,45,1,f,2022-03-10_19h14.06.425,HW1_Rostami_810100355,2022.1.1,60.07701872298738,
70.bmp,"(3.49, 0)","(3.49, 3.49)",0,0,0,0,1,54,171,92,,,,,,,,,,,,,,,520.5211042000446,None,521.0206698999973,521.0704903999576,p,0.5978817999130115,521.0206698999973,None,,,,,,,,,,,,,,,,,,,8101003552,r,r,45,1,f,2022-03-10_19h14.06.425,HW1_Rostami_810100355,2022.1.1,60.07701872298738,
10.bmp,"(-5.25, -3.05)","(5.24, 5.24)",0,0,0,0,1,55,172,23,,,,,,,,,,,,,,,521.6369538999861,None,522.1365904000122,522.1862330000149,p,0.730661999899894,522.1365904000122,None,,,,,,,,,,,,,,,,,,,8101003552,r,r,45,1,f,2022-03-10_19h14.06.425,HW1_Rostami_810100355,2022.1.1,60.07701872298738,
0.bmp,"(5.25, -3.05)","(5.24, 5.24)",0,0,0,0,1,56,173,12,,,,,,,,,,,,,,,522.8857219000347,None,523.3854637000477,523.4352759999456,p,1.4246605000225827,523.3854637000477,None,,,,,,,,,,,,,,,,,,,8101003552,r,r,45,1,f,2022-03-10_19h14.06.425,HW1_Rostami_810100355,2022.1.1,60.07701872298738,
10.bmp,"(0, 0)","(2.18, 2.18)",0,0,0,0,1,57,174,13,,,,,,,,,,,,,,,524.8341654000105,None,525.3336348000448,525.3835657000309,p,0.9277444999897853,525.3336348000448,None,,,,,,,,,,,,,,,,,,,8101003552,r,r,45,1,f,2022-03-10_19h14.06.425,HW1_Rostami_810100355,2022.1.1,60.07701872298738,
80.bmp,"(5.25, 3.05)","(5.24, 5.24)",0,0,0,0,1,58,175,111,,,,,,,,,,,,,,,526.2827709999401,None,526.7824643999338,526.83220049995,p,0.9612906000111252,526.7824643999338,None,,,,,,,,,,,,,,,,,,,8101003552,r,r,45,1,f,2022-03-10_19h14.06.425,HW1_Rostami_810100355,2022.1.1,60.07701872298738,
70.bmp,"(1.74, -3)","(3.49, 3.49)",0,0,0,0,1,59,176,97,,,,,,,,,,,,,,,527.7649320999626,None,528.264189700014,528.3140383999562,p,0.4571318000089377,528.264189700014,None,,,,,,,,,,,,,,,,,,,8101003552,r,r,45,1,f,2022-03-10_19h14.06.425,HW1_Rostami_810100355,2022.1.1,60.07701872298738,
20.bmp,"(0, 0)","(2.18, 2.18)",0,0,0,0,1,60,177,26,,,,,,,,,,,,,,,528.7474242999451,None,529.2469802999403,529.296903999988,o,1.0582311999751255,529.2469802999403,None,,,,,,,,,,,,,,,,,,,8101003552,r,r,45,1,f,2022-03-10_19h14.06.425,HW1_Rostami_810100355,2022.1.1,60.07701872298738,
70.bmp,"(1.74, 3)","(3.49, 3.49)",0,0,0,0,1,61,178,93,,,,,,,,,,,,,,,530.3290965999477,None,530.8287302999524,530.8785602999851,p,0.6762442999752238,530.8287302999524,None,,,,,,,,,,,,,,,,,,,8101003552,r,r,45,1,f,2022-03-10_19h14.06.425,HW1_Rostami_810100355,2022.1.1,60.07701872298738,
40.bmp,"(0, 0)","(2.18, 2.18)",0,0,0,0,1,62,179,52,,,,,,,,,,,,,,,531.5280960999662,None,532.0282063999912,532.0776931999717,p,0.6411747999954969,532.0282063999912,None,,,,,,,,,,,,,,,,,,,8101003552,r,r,45,1,f,2022-03-10_19h14.06.425,HW1_Rostami_810100355,2022.1.1,60.07701872298738,
40.bmp,"(-5.25, -3.05)","(5.24, 5.24)",0,0,0,0,1,63,180,62,,,,,,,,,,,,,,,532.693827399984,None,533.1934806000208,533.2433630999876,p,0.7241232000524178,533.1934806000208,None,,,,,,,,,,,,,,,,,,,8101003552,r,r,45,1,f,2022-03-10_19h14.06.425,HW1_Rostami_810100355,2022.1.1,60.07701872298738,
80.bmp,"(1.74, 3)","(3.49, 3.49)",0,0,0,0,1,64,181,106,,,,,,,,,,,,,,,533.9428646999877,None,534.4425251999637,534.4923870000057,p,0.5639615999534726,534.4425251999637,None,,,,,,,,,,,,,,,,,,,8101003552,r,r,45,1,f,2022-03-10_19h14.06.425,HW1_Rostami_810100355,2022.1.1,60.07701872298738,
70.bmp,"(5.25, 3.05)","(5.24, 5.24)",0,0,0,0,1,65,182,98,,,,,,,,,,,,,,,535.0253237000434,None,535.5245920999441,535.574426200008,o,0.9211452000308782,535.5245920999441,None,,,,,,,,,,,,,,,,,,,8101003552,r,r,45,1,f,2022-03-10_19h14.06.425,HW1_Rostami_810100355,2022.1.1,60.07701872298738,
30.bmp,"(0, 0)","(2.18, 2.18)",0,0,0,0,1,66,183,39,,,,,,,,,,,,,,,536.4738542999839,None,536.9733503999887,537.0233911999967,p,0.9281539000803605,536.9733503999887,None,,,,,,,,,,,,,,,,,,,8101003552,r,r,45,1,f,2022-03-10_19h14.06.425,HW1_Rostami_810100355,2022.1.1,60.07701872298738,
20.bmp,"(5.25, 3.05)","(5.24, 5.24)",0,0,0,0,1,67,184,33,,,,,,,,,,,,,,,537.9224724000087,None,538.4220424999949,538.4718914999394,p,0.7391612000064924,538.4220424999949,None,,,,,,,,,,,,,,,,,,,8101003552,r,r,45,1,f,2022-03-10_19h14.06.425,HW1_Rostami_810100355,2022.1.1,60.07701872298738,
0.bmp,"(0, 0)","(2.18, 2.18)",0,0,0,0,1,68,185,0,,,,,,,,,,,,,,,539.188255899935,None,539.6879144000122,539.737749199965,p,0.803613799973391,539.6879144000122,None,,,,,,,,,,,,,,,,,,,8101003552,r,r,45,1,f,2022-03-10_19h14.06.425,HW1_Rostami_810100355,2022.1.1,60.07701872298738,
10.bmp,"(-3.49, 0)","(3.49, 3.49)",0,0,0,0,1,69,186,17,,,,,,,,,,,,,,,540.5202753000194,None,541.0199880000437,541.0698944999604,p,0.7823916000779718,541.0199880000437,None,,,,,,,,,,,,,,,,,,,8101003552,r,r,45,1,f,2022-03-10_19h14.06.425,HW1_Rostami_810100355,2022.1.1,60.07701872298738,
70.bmp,"(-5.25, -3.05)","(5.24, 5.24)",0,0,0,0,1,70,187,101,,,,,,,,,,,,,,,541.8188994999509,None,542.3191698000301,542.3690945999697,p,0.6580779000651091,542.3191698000301,None,,,,,,,,,,,,,,,,,,,8101003552,r,r,45,1,f,2022-03-10_19h14.06.425,HW1_Rostami_810100355,2022.1.1,60.07701872298738,
20.bmp,"(-5.25, -3.05)","(5.24, 5.24)",0,0,0,0,1,71,188,36,,,,,,,,,,,,,,,543.001227300032,None,543.5010264000157,543.5508458999684,p,0.9394992999732494,543.5010264000157,None,,,,,,,,,,,,,,,,,,,8101003552,r,r,45,1,f,2022-03-10_19h14.06.425,HW1_Rostami_810100355,2022.1.1,60.07701872298738,
10.bmp,"(0, 6.11)","(5.24, 5.24)",0,0,0,0,1,72,189,21,,,,,,,,,,,,,,,544.4669639000203,None,544.9664178999374,545.0162108000368,p,0.8105549000902101,544.9664178999374,None,,,,,,,,,,,,,,,,,,,8101003552,r,r,45,1,f,2022-03-10_19h14.06.425,HW1_Rostami_810100355,2022.1.1,60.07701872298738,
60.bmp,"(0, 6.11)","(5.24, 5.24)",0,0,0,0,1,73,190,86,,,,,,,,,,,,,,,545.7987631999422,None,546.2989740000339,546.3487165999832,p,0.7686552000232041,546.2989740000339,None,,,,,,,,,,,,,,,,,,,8101003552,r,r,45,1,f,2022-03-10_19h14.06.425,HW1_Rostami_810100355,2022.1.1,60.07701872298738,
10.bmp,"(-5.25, 3.05)","(5.24, 5.24)",0,0,0,0,1,74,191,22,,,,,,,,,,,,,,,547.0981630999595,None,547.5978456999874,547.6477320999838,p,0.683614700101316,547.5978456999874,None,,,,,,,,,,,,,,,,,,,8101003552,r,r,45,1,f,2022-03-10_19h14.06.425,HW1_Rostami_810100355,2022.1.1,60.07701872298738,
80.bmp,"(3.49, 0)","(3.49, 3.49)",0,0,0,0,1,75,192,105,,,,,,,,,,,,,,,548.3132823000196,None,548.8132557999343,548.8632290000096,o,0.9681588000385091,548.8132557999343,None,,,,,,,,,,,,,,,,,,,8101003552,r,r,45,1,f,2022-03-10_19h14.06.425,HW1_Rostami_810100355,2022.1.1,60.07701872298738,
40.bmp,"(0, 6.11)","(5.24, 5.24)",0,0,0,0,1,76,193,60,,,,,,,,,,,,,,,549.8122971999692,None,550.312278599944,550.3618818999967,p,0.6974224000005051,550.312278599944,None,,,,,,,,,,,,,,,,,,,8101003552,r,r,45,1,f,2022-03-10_19h14.06.425,HW1_Rostami_810100355,2022.1.1,60.07701872298738,
60.bmp,"(-5.25, 3.05)","(5.24, 5.24)",0,0,0,0,1,77,194,87,,,,,,,,,,,,,,,551.0281920999987,None,551.5274663999444,551.5772514999844,o,1.6778632999630645,551.5274663999444,None,,,,,,,,,,,,,,,,,,,8101003552,r,r,45,1,f,2022-03-10_19h14.06.425,HW1_Rostami_810100355,2022.1.1,60.07701872298738,
60.bmp,"(-1.74, -3)","(3.49, 3.49)",0,0,0,0,1,78,195,83,,,,,,,,,,,,,,,553.225814400008,None,553.7257376000052,553.7756650999654,p,0.6205539000220597,553.7257376000052,None,,,,,,,,,,,,,,,,,,,8101003552,r,r,45,1,f,2022-03-10_19h14.06.425,HW1_Rostami_810100355,2022.1.1,60.07701872298738,
40.bmp,"(5.25, -3.05)","(5.24, 5.24)",0,0,0,0,1,79,196,64,,,,,,,,,,,,,,,554.3749276000308,None,554.8747051999671,554.9249408999458,p,0.4456804000074044,554.8747051999671,None,,,,,,,,,,,,,,,,,,,8101003552,r,r,45,1,f,2022-03-10_19h14.06.425,HW1_Rostami_810100355,2022.1.1,60.07701872298738,
10.bmp,"(1.74, -3)","(3.49, 3.49)",0,0,0,0,1,80,197,19,,,,,,,,,,,,,,,555.3409025999717,None,555.8403170999372,555.8904607000295,p,0.7968367000576109,555.8403170999372,None,,,,,,,,,,,,,,,,,,,8101003552,r,r,45,1,f,2022-03-10_19h14.06.425,HW1_Rostami_810100355,2022.1.1,60.07701872298738,
50.bmp,"(5.25, 3.05)","(5.24, 5.24)",0,0,0,0,1,81,198,72,,,,,,,,,,,,,,,556.6564767999807,None,557.1559096999699,557.2056891999673,p,2.4175335000036284,557.1559096999699,None,,,,,,,,,,,,,,,,,,,8101003552,r,r,45,1,f,2022-03-10_19h14.06.425,HW1_Rostami_810100355,2022.1.1,60.07701872298738,
50.bmp,"(-1.74, 3)","(3.49, 3.49)",0,0,0,0,1,82,199,68,,,,,,,,,,,,,,,559.6037845000392,None,560.103549099993,560.1533779000165,p,1.1062525000888854,560.103549099993,None,,,,,,,,,,,,,,,,,,,8101003552,r,r,45,1,f,2022-03-10_19h14.06.425,HW1_Rostami_810100355,2022.1.1,60.07701872298738,
0.bmp,"(3.49, 0)","(3.49, 3.49)",0,0,0,0,1,83,200,1,,,,,,,,,,,,,,,561.235565799987,None,561.7352675000438,561.7850768000353,p,0.6668308000080287,561.7352675000438,None,,,,,,,,,,,,,,,,,,,8101003552,r,r,45,1,f,2022-03-10_19h14.06.425,HW1_Rostami_810100355,2022.1.1,60.07701872298738,
60.bmp,"(3.49, 0)","(3.49, 3.49)",0,0,0,0,1,84,201,79,,,,,,,,,,,,,,,562.4345985000255,None,562.9343676000135,562.9842267000349,p,0.5941982999211177,562.9343676000135,None,,,,,,,,,,,,,,,,,,,8101003552,r,r,45,1,f,2022-03-10_19h14.06.425,HW1_Rostami_810100355,2022.1.1,60.07701872298738,
50.bmp,"(3.49, 0)","(3.49, 3.49)",0,0,0,0,1,85,202,66,,,,,,,,,,,,,,,563.5502667999826,None,564.0499721999513,564.0997829999542,p,0.6200319000054151,564.0499721999513,None,,,,,,,,,,,,,,,,,,,8101003552,r,r,45,1,f,2022-03-10_19h14.06.425,HW1_Rostami_810100355,2022.1.1,60.07701872298738,
70.bmp,"(-1.74, -3)","(3.49, 3.49)",0,0,0,0,1,86,203,96,,,,,,,,,,,,,,,564.6994207999669,None,565.1990434000036,565.2488697000081,p,0.5974454999668524,565.1990434000036,None,,,,,,,,,,,,,,,,,,,8101003552,r,r,45,1,f,2022-03-10_19h14.06.425,HW1_Rostami_810100355,2022.1.1,60.07701872298738,
10.bmp,"(-1.74, 3)","(3.49, 3.49)",0,0,0,0,1,87,204,16,,,,,,,,,,,,,,,565.8151988999452,None,566.3145654000109,566.3644250000361,p,0.5150539999594912,566.3145654000109,None,,,,,,,,,,,,,,,,,,,8101003552,r,r,45,1,f,2022-03-10_19h14.06.425,HW1_Rostami_810100355,2022.1.1,60.07701872298738,
0.bmp,"(1.74, -3)","(3.49, 3.49)",0,0,0,0,1,88,205,6,,,,,,,,,,,,,,,566.8474680000218,None,567.3470066000009,567.3968635000056,p,0.4725907000247389,567.3470066000009,None,,,,,,,,,,,,,,,,,,,8101003552,r,r,45,1,f,2022-03-10_19h14.06.425,HW1_Rostami_810100355,2022.1.1,60.07701872298738,
20.bmp,"(-1.74, -3)","(3.49, 3.49)",0,0,0,0,1,89,206,31,,,,,,,,,,,,,,,567.8464796999469,None,568.3459117000457,568.3957783000078,p,0.460977999959141,568.3459117000457,None,,,,,,,,,,,,,,,,,,,8101003552,r,r,45,1,f,2022-03-10_19h14.06.425,HW1_Rostami_810100355,2022.1.1,60.07701872298738,
60.bmp,"(-1.74, 3)","(3.49, 3.49)",0,0,0,0,1,90,207,81,,,,,,,,,,,,,,,568.829443100025,None,569.3288864999777,569.3784868000075,p,0.4456357000162825,569.3288864999777,None,,,,,,,,,,,,,,,,,,,8101003552,r,r,45,1,f,2022-03-10_19h14.06.425,HW1_Rostami_810100355,2022.1.1,60.07701872298738,
20.bmp,"(5.25, -3.05)","(5.24, 5.24)",0,0,0,0,1,91,208,38,,,,,,,,,,,,,,,569.7948902000207,None,570.2947466999758,570.3445239999564,p,0.4164922999916598,570.2947466999758,None,,,,,,,,,,,,,,,,,,,8101003552,r,r,45,1,f,2022-03-10_19h14.06.425,HW1_Rostami_810100355,2022.1.1,60.07701872298738,
40.bmp,"(5.25, 3.05)","(5.24, 5.24)",0,0,0,0,1,92,209,59,,,,,,,,,,,,,,,570.7440569000319,None,571.2435325999977,571.2933653999353,p,0.744383699959144,571.2435325999977,None,,,,,,,,,,,,,,,,,,,8101003552,r,r,45,1,f,2022-03-10_19h14.06.425,HW1_Rostami_810100355,2022.1.1,60.07701872298738,
30.bmp,"(-1.74, 3)","(3.49, 3.49)",0,0,0,0,1,93,210,42,,,,,,,,,,,,,,,572.0095101000043,None,572.5091816999484,572.5589164999546,p,0.44560750003438443,572.5091816999484,None,,,,,,,,,,,,,,,,,,,8101003552,r,r,45,1,f,2022-03-10_19h14.06.425,HW1_Rostami_810100355,2022.1.1,60.07701872298738,
80.bmp,"(-3.49, 0)","(3.49, 3.49)",0,0,0,0,1,94,211,108,,,,,,,,,,,,,,,572.9755485999631,None,573.4750611999771,573.5248166000238,p,0.7238474000478163,573.4750611999771,None,,,,,,,,,,,,,,,,,,,8101003552,r,r,45,1,f,2022-03-10_19h14.06.425,HW1_Rostami_810100355,2022.1.1,60.07701872298738,
0.bmp,"(-3.49, 0)","(3.49, 3.49)",0,0,0,0,1,95,212,4,,,,,,,,,,,,,,,574.2244019999634,None,574.7240254000062,574.7738627999788,p,0.6897723999572918,574.7240254000062,None,,,,,,,,,,,,,,,,,,,8101003552,r,r,45,1,f,2022-03-10_19h14.06.425,HW1_Rostami_810100355,2022.1.1,60.07701872298738,
60.bmp,"(5.25, 3.05)","(5.24, 5.24)",0,0,0,0,1,96,213,85,,,,,,,,,,,,,,,575.440072700032,None,575.9398550000042,575.9895018000389,p,0.45443130005151033,575.9398550000042,None,,,,,,,,,,,,,,,,,,,8101003552,r,r,45,1,f,2022-03-10_19h14.06.425,HW1_Rostami_810100355,2022.1.1,60.07701872298738,
30.bmp,"(0, -6.11)","(5.24, 5.24)",0,0,0,0,1,97,214,50,,,,,,,,,,,,,,,576.4223440999631,None,576.9219440999441,576.9717953000218,p,0.6049148999154568,576.9219440999441,None,,,,,,,,,,,,,,,,,,,8101003552,r,r,45,1,f,2022-03-10_19h14.06.425,HW1_Rostami_810100355,2022.1.1,60.07701872298738,
40.bmp,"(0, -6.11)","(5.24, 5.24)",0,0,0,0,1,98,215,63,,,,,,,,,,,,,,,577.5545956999995,None,578.054304499994,578.1041212000418,p,0.5951668000780046,578.054304499994,None,,,,,,,,,,,,,,,,,,,8101003552,r,r,45,1,f,2022-03-10_19h14.06.425,HW1_Rostami_810100355,2022.1.1,60.07701872298738,
80.bmp,"(5.25, -3.05)","(5.24, 5.24)",0,0,0,0,1,99,216,116,,,,,,,,,,,,,,,578.6707592000021,None,579.1703931000084,579.2202073000371,p,0.42032790009398013,579.1703931000084,None,,,,,,,,,,,,,,,,,,,8101003552,r,r,45,1,f,2022-03-10_19h14.06.425,HW1_Rostami_810100355,2022.1.1,60.07701872298738,
60.bmp,"(0, 0)","(2.18, 2.18)",0,0,0,0,1,100,217,78,,,,,,,,,,,,,,,579.6199270000216,None,580.1192312999628,580.1691401000135,o,1.0352046999614686,580.1192312999628,None,,,,,,,,,,,,,,,,,,,8101003552,r,r,45,1,f,2022-03-10_19h14.06.425,HW1_Rostami_810100355,2022.1.1,60.07701872298738,
10.bmp,"(-1.74, -3)","(3.49, 3.49)",0,0,0,0,1,101,218,18,,,,,,,,,,,,,,,581.1850748000434,None,581.6843877999345,581.7342993000057,o,2.284068400040269,581.6843877999345,None,,,,,,,,,,,,,,,,,,,8101003552,r,r,45,1,f,2022-03-10_19h14.06.425,HW1_Rostami_810100355,2022.1.1,60.07701872298738,
20.bmp,"(1.74, -3)","(3.49, 3.49)",0,0,0,0,1,102,219,32,,,,,,,,,,,,,,,583.999185499968,None,584.4988409000216,584.5486778999912,p,1.1016215999843553,584.4988409000216,None,,,,,,,,,,,,,,,,,,,8101003552,r,r,45,1,f,2022-03-10_19h14.06.425,HW1_Rostami_810100355,2022.1.1,60.07701872298738,
30.bmp,"(1.74, 3)","(3.49, 3.49)",0,0,0,0,1,103,220,41,,,,,,,,,,,,,,,585.6310464999406,None,586.13073850004,586.1805669999449,p,2.2678492000559345,586.13073850004,None,,,,,,,,,,,,,,,,,,,8101003552,r,r,45,1,f,2022-03-10_19h14.06.425,HW1_Rostami_810100355,2022.1.1,60.07701872298738,
10.bmp,"(5.25, 3.05)","(5.24, 5.24)",0,0,0,0,1,104,221,20,,,,,,,,,,,,,,,588.4283057999564,None,588.9286608999828,588.9780880999751,p,0.7600132999941707,588.9286608999828,None,,,,,,,,,,,,,,,,,,,8101003552,r,r,45,1,f,2022-03-10_19h14.06.425,HW1_Rostami_810100355,2022.1.1,60.07701872298738,
40.bmp,"(-5.25, 3.05)","(5.24, 5.24)",0,0,0,0,1,105,222,61,,,,,,,,,,,,,,,589.7110879999818,None,590.2105163999368,590.2603663000045,p,0.8379244999960065,590.2105163999368,None,,,,,,,,,,,,,,,,,,,8101003552,r,r,45,1,f,2022-03-10_19h14.06.425,HW1_Rostami_810100355,2022.1.1,60.07701872298738,
60.bmp,"(-3.49, 0)","(3.49, 3.49)",0,0,0,0,1,106,223,82,,,,,,,,,,,,,,,591.0764002000215,None,591.5761191999773,591.6258202999597,p,0.6397479999577627,591.5761191999773,None,,,,,,,,,,,,,,,,,,,8101003552,r,r,45,1,f,2022-03-10_19h14.06.425,HW1_Rostami_810100355,2022.1.1,60.07701872298738,
30.bmp,"(-1.74, -3)","(3.49, 3.49)",0,0,0,0,1,107,224,44,,,,,,,,,,,,,,,592.2419545999728,None,592.7416265000356,592.791521999985,p,0.7780907999258488,592.7416265000356,None,,,,,,,,,,,,,,,,,,,8101003552,r,r,45,1,f,2022-03-10_19h14.06.425,HW1_Rostami_810100355,2022.1.1,60.07701872298738,
20.bmp,"(0, -6.11)","(5.24, 5.24)",0,0,0,0,1,108,225,37,,,,,,,,,,,,,,,593.5412096999353,None,594.0404964999761,594.0903297000332,p,0.6134134000167251,594.0404964999761,None,,,,,,,,,,,,,,,,,,,8101003552,r,r,45,1,f,2022-03-10_19h14.06.425,HW1_Rostami_810100355,2022.1.1,60.07701872298738,
70.bmp,"(0, -6.11)","(5.24, 5.24)",0,0,0,0,1,109,226,102,,,,,,,,,,,,,,,594.6732405000366,None,595.172947300016,595.2227928999346,p,0.5206779000582173,595.172947300016,None,,,,,,,,,,,,,,,,,,,8101003552,r,r,45,1,f,2022-03-10_19h14.06.425,HW1_Rostami_810100355,2022.1.1,60.07701872298738,
0.bmp,"(-5.25, 3.05)","(5.24, 5.24)",0,0,0,0,1,110,227,9,,,,,,,,,,,,,,,595.7222254000371,None,596.2220409000292,596.2718479000032,p,0.4811875999439508,596.2220409000292,None,,,,,,,,,,,,,,,,,,,8101003552,r,r,45,1,f,2022-03-10_19h14.06.425,HW1_Rostami_810100355,2022.1.1,60.07701872298738,
30.bmp,"(3.49, 0)","(3.49, 3.49)",0,0,0,0,1,111,228,40,,,,,,,,,,,,,,,596.7216187999584,None,597.2209149999544,597.2707515000366,p,0.6806816000025719,597.2209149999544,None,,,,,,,,,,,,,,,,,,,8101003552,r,r,45,1,f,2022-03-10_19h14.06.425,HW1_Rostami_810100355,2022.1.1,60.07701872298738,
80.bmp,"(0, 0)","(2.18, 2.18)",0,0,0,0,1,112,229,104,,,,,,,,,,,,,,,597.9201760999858,None,598.4197471999796,598.4695675999392,p,0.6929877999937162,598.4197471999796,None,,,,,,,,,,,,,,,,,,,8101003552,r,r,45,1,f,2022-03-10_19h14.06.425,HW1_Rostami_810100355,2022.1.1,60.07701872298738,
50.bmp,"(-5.25, 3.05)","(5.24, 5.24)",0,0,0,0,1,113,230,74,,,,,,,,,,,,,,,599.1362690000096,None,599.6357345000142,599.6853404999711,p,0.5044745000777766,599.6357345000142,None,,,,,,,,,,,,,,,,,,,8101003552,r,r,45,1,f,2022-03-10_19h14.06.425,HW1_Rostami_810100355,2022.1.1,60.07701872298738,
50.bmp,"(-3.49, 0)","(3.49, 3.49)",0,0,0,0,1,114,231,69,,,,,,,,,,,,,,,600.1683286000043,None,600.6681443999987,600.7179510999704,p,0.8273784999037161,600.6681443999987,None,,,,,,,,,,,,,,,,,,,8101003552,r,r,45,1,f,2022-03-10_19h14.06.425,HW1_Rostami_810100355,2022.1.1,60.07701872298738,
80.bmp,"(0, -6.11)","(5.24, 5.24)",0,0,0,0,1,115,232,115,,,,,,,,,,,,,,,601.5171811999753,None,602.0169118000194,602.0665421000449,p,0.4392117999959737,602.0169118000194,None,,,,,,,,,,,,,,,,,,,8101003552,r,r,45,1,f,2022-03-10_19h14.06.425,HW1_Rostami_810100355,2022.1.1,60.07701872298738,
80.bmp,"(1.74, -3)","(3.49, 3.49)",0,0,0,0,1,116,233,110,,,,,,,,,,,,,,,602.4827896000352,None,602.9825969999656,603.0324447000166,p,0.4573607000056654,602.9825969999656,None,,,,,,,,,,,,,,,,,,,8101003552,r,r,45,1,f,2022-03-10_19h14.06.425,HW1_Rostami_810100355,2022.1.1,60.07701872298738,
30.bmp,"(5.25, -3.05)","(5.24, 5.24)",0,0,0,0,,,,,0,0,0,51,,,,,,,,,,,,,,,,,,,603.4661869000411,None,603.4661869000411,None,space,13.494725900003687,603.4661869000411,None,617.0086241000099,None,617.5032736000139,617.553216499975,w,0.5446038000518456,617.5032736000139,None,,,8101003552,r,r,45,1,f,2022-03-10_19h14.06.425,HW1_Rostami_810100355,2022.1.1,60.07701872298738,
30.bmp,"(-5.25, 3.05)","(5.24, 5.24)",0,0,0,0,,,,,0,1,1,48,,,,,,,,,,,,,,,,,,,,,,,,,,,618.0694053999614,None,618.5688556999667,618.6186710000038,q,0.6857688999734819,618.5688556999667,None,,,8101003552,r,r,45,1,f,2022-03-10_19h14.06.425,HW1_Rostami_810100355,2022.1.1,60.07701872298738,
60.bmp,"(5.25, 3.05)","(5.24, 5.24)",0,0,0,0,,,,,0,2,2,85,,,,,,,,,,,,,,,,,,,,,,,,,,,619.2851777999895,None,619.7848496999359,619.8347969000461,w,0.6037547000451013,619.7848496999359,None,,,8101003552,r,r,45,1,f,2022-03-10_19h14.06.425,HW1_Rostami_810100355,2022.1.1,60.07701872298738,
70.bmp,"(5.25, -3.05)","(5.24, 5.24)",0,0,0,0,,,,,0,3,3,103,,,,,,,,,,,,,,,,,,,,,,,,,,,620.4177494000178,None,620.9172175000422,620.9669408999616,w,0.53900099999737,620.9172175000422,None,,,8101003552,r,r,45,1,f,2022-03-10_19h14.06.425,HW1_Rostami_810100355,2022.1.1,60.07701872298738,
50.bmp,"(-3.49, 0)","(3.49, 3.49)",0,0,0,0,,,,,0,4,4,69,,,,,,,,,,,,,,,,,,,,,,,,,,,621.4830849999562,None,621.9830136999954,622.0326480999356,w,1.1842558999778703,621.9830136999954,None,,,8101003552,r,r,45,1,f,2022-03-10_19h14.06.425,HW1_Rostami_810100355,2022.1.1,60.07701872298738,
60.bmp,"(-1.74, -3)","(3.49, 3.49)",0,0,0,0,,,,,0,5,5,83,,,,,,,,,,,,,,,,,,,,,,,,,,,623.1985325999558,None,623.6980653000064,623.747996799997,w,0.5383065999485552,623.6980653000064,None,,,8101003552,r,r,45,1,f,2022-03-10_19h14.06.425,HW1_Rostami_810100355,2022.1.1,60.07701872298738,
60.bmp,"(5.25, -3.05)","(5.24, 5.24)",0,0,0,0,,,,,0,6,6,90,,,,,,,,,,,,,,,,,,,,,,,,,,,624.2641247999854,None,624.763796400046,624.8136756999884,w,0.7346872000489384,624.763796400046,None,,,8101003552,r,r,45,1,f,2022-03-10_19h14.06.425,HW1_Rostami_810100355,2022.1.1,60.07701872298738,
50.bmp,"(3.49, 0)","(3.49, 3.49)",0,0,0,0,,,,,0,7,7,66,,,,,,,,,,,,,,,,,,,,,,,,,,,625.5296591999941,None,626.0294162000064,626.0792161000427,w,0.5124973000492901,626.0294162000064,None,,,8101003552,r,r,45,1,f,2022-03-10_19h14.06.425,HW1_Rostami_810100355,2022.1.1,60.07701872298738,
20.bmp,"(-5.25, 3.05)","(5.24, 5.24)",0,0,0,0,,,,,0,8,8,35,,,,,,,,,,,,,,,,,,,,,,,,,,,626.5622214999748,None,627.0618418999948,627.1116465999512,w,0.758103400003165,627.0618418999948,None,,,8101003552,r,r,45,1,f,2022-03-10_19h14.06.425,HW1_Rostami_810100355,2022.1.1,60.07701872298738,
10.bmp,"(-5.25, -3.05)","(5.24, 5.24)",0,0,0,0,,,,,0,9,9,23,,,,,,,,,,,,,,,,,,,,,,,,,,,627.8441690000473,None,628.3441048000241,628.3935211999342,w,0.5971855000825599,628.3441048000241,None,,,8101003552,r,r,45,1,f,2022-03-10_19h14.06.425,HW1_Rostami_810100355,2022.1.1,60.07701872298738,
20.bmp,"(0, 0)","(2.18, 2.18)",0,0,0,0,,,,,0,10,10,26,,,,,,,,,,,,,,,,,,,,,,,,,,,628.9599364999449,None,629.4596192999743,629.5094759999774,w,0.541788800037466,629.4596192999743,None,,,8101003552,r,r,45,1,f,2022-03-10_19h14.06.425,HW1_Rostami_810100355,2022.1.1,60.07701872298738,
0.bmp,"(0, -6.11)","(5.24, 5.24)",0,0,0,0,,,,,0,11,11,11,,,,,,,,,,,,,,,,,,,,,,,,,,,630.0257118999725,None,630.5256836999906,630.5752686000196,w,0.9388501000357792,630.5256836999906,None,,,8101003552,r,r,45,1,f,2022-03-10_19h14.06.425,HW1_Rostami_810100355,2022.1.1,60.07701872298738,
40.bmp,"(0, 0)","(2.18, 2.18)",0,0,0,0,,,,,0,12,12,52,,,,,,,,,,,,,,,,,,,,,,,,,,,631.4914025999606,None,631.9911047000205,632.0407635000302,w,0.5548631000565365,631.9911047000205,None,,,8101003552,r,r,45,1,f,2022-03-10_19h14.06.425,HW1_Rostami_810100355,2022.1.1,60.07701872298738,
30.bmp,"(3.49, 0)","(3.49, 3.49)",0,0,0,0,,,,,0,13,13,40,,,,,,,,,,,,,,,,,,,,,,,,,,,632.5738512999378,None,633.0730742999585,633.1232881000033,w,0.3815850999671966,633.0730742999585,None,,,8101003552,r,r,45,1,f,2022-03-10_19h14.06.425,HW1_Rostami_810100355,2022.1.1,60.07701872298738,
10.bmp,"(3.49, 0)","(3.49, 3.49)",0,0,0,0,,,,,0,14,14,14,,,,,,,,,,,,,,,,,,,,,,,,,,,633.4728648000164,None,633.9723566999892,634.0223928999621,w,0.6689347999636084,633.9723566999892,None,,,8101003552,r,r,45,1,f,2022-03-10_19h14.06.425,HW1_Rostami_810100355,2022.1.1,60.07701872298738,
20.bmp,"(1.74, 3)","(3.49, 3.49)",0,0,0,0,,,,,0,15,15,28,,,,,,,,,,,,,,,,,,,,,,,,,,,634.6716583999805,None,635.171556300018,635.2214645999484,w,0.6704888000385836,635.171556300018,None,,,8101003552,r,r,45,1,f,2022-03-10_19h14.06.425,HW1_Rostami_810100355,2022.1.1,60.07701872298738,
80.bmp,"(-5.25, 3.05)","(5.24, 5.24)",0,0,0,0,,,,,0,16,16,113,,,,,,,,,,,,,,,,,,,,,,,,,,,635.8708184999414,None,636.3703252000269,636.4202992999926,q,0.6760676999110729,636.3703252000269,None,,,8101003552,r,r,45,1,f,2022-03-10_19h14.06.425,HW1_Rostami_810100355,2022.1.1,60.07701872298738,
30.bmp,"(-1.74, -3)","(3.49, 3.49)",0,0,0,0,,,,,0,17,17,44,,,,,,,,,,,,,,,,,,,,,,,,,,,637.0697357000317,None,637.5694711999968,637.6191193000413,w,0.583782900008373,637.5694711999968,None,,,8101003552,r,r,45,1,f,2022-03-10_19h14.06.425,HW1_Rostami_810100355,2022.1.1,60.07701872298738,
30.bmp,"(-3.49, 0)","(3.49, 3.49)",0,0,0,0,,,,,0,18,18,43,,,,,,,,,,,,,,,,,,,,,,,,,,,638.1852036999771,None,638.6846794999437,638.7349464000436,q,0.7220745000522584,638.6846794999437,None,,,8101003552,r,r,45,1,f,2022-03-10_19h14.06.425,HW1_Rostami_810100355,2022.1.1,60.07701872298738,
20.bmp,"(0, 6.11)","(5.24, 5.24)",0,0,0,0,,,,,0,19,19,34,,,,,,,,,,,,,,,,,,,,,,,,,,,639.4344002000289,None,639.9340783000225,639.9836659999564,w,0.5661726999096572,639.9340783000225,None,,,8101003552,r,r,45,1,f,2022-03-10_19h14.06.425,HW1_Rostami_810100355,2022.1.1,60.07701872298738,
10.bmp,"(5.25, -3.05)","(5.24, 5.24)",0,0,0,0,,,,,0,20,20,25,,,,,,,,,,,,,,,,,,,,,,,,,,,640.5165994999697,None,641.0165207999526,641.0665190999862,w,0.5265066999709234,641.0165207999526,None,,,8101003552,r,r,45,1,f,2022-03-10_19h14.06.425,HW1_Rostami_810100355,2022.1.1,60.07701872298738,
0.bmp,"(5.25, -3.05)","(5.24, 5.24)",0,0,0,0,,,,,0,21,21,12,,,,,,,,,,,,,,,,,,,,,,,,,,,641.5653939000331,None,642.0657315000426,642.1152392999502,w,0.739718500059098,642.0657315000426,None,,,8101003552,r,r,45,1,f,2022-03-10_19h14.06.425,HW1_Rostami_810100355,2022.1.1,60.07701872298738,
0.bmp,"(-1.74, 3)","(3.49, 3.49)",0,0,0,0,,,,,0,22,22,3,,,,,,,,,,,,,,,,,,,,,,,,,,,642.8316862999927,None,643.3308691999409,643.3807346000103,w,0.5996942000929266,643.3308691999409,None,,,8101003552,r,r,45,1,f,2022-03-10_19h14.06.425,HW1_Rostami_810100355,2022.1.1,60.07701872298738,
80.bmp,"(5.25, -3.05)","(5.24, 5.24)",0,0,0,0,,,,,0,23,23,116,,,,,,,,,,,,,,,,,,,,,,,,,,,643.9468677999685,None,644.4465909999562,644.4963654000312,w,0.6327735000522807,644.4465909999562,None,,,8101003552,r,r,45,1,f,2022-03-10_19h14.06.425,HW1_Rostami_810100355,2022.1.1,60.07701872298738,
70.bmp,"(0, -6.11)","(5.24, 5.24)",0,0,0,0,,,,,0,24,24,102,,,,,,,,,,,,,,,,,,,,,,,,,,,645.0959192999871,None,645.5956145999953,645.6454307000386,w,0.6002653000177816,645.5956145999953,None,,,8101003552,r,r,45,1,f,2022-03-10_19h14.06.425,HW1_Rostami_810100355,2022.1.1,60.07701872298738,
70.bmp,"(3.49, 0)","(3.49, 3.49)",0,0,0,0,,,,,0,25,25,92,,,,,,,,,,,,,,,,,,,,,,,,,,,646.2283725000452,None,646.7283447999507,646.7781735999743,w,0.5802804999984801,646.7283447999507,None,,,8101003552,r,r,45,1,f,2022-03-10_19h14.06.425,HW1_Rostami_810100355,2022.1.1,60.07701872298738,
60.bmp,"(-3.49, 0)","(3.49, 3.49)",0,0,0,0,,,,,0,26,26,82,,,,,,,,,,,,,,,,,,,,,,,,,,,647.3273534999462,None,647.8271236999426,647.877039300045,w,1.1906805000035092,647.8271236999426,None,,,8101003552,r,r,45,1,f,2022-03-10_19h14.06.425,HW1_Rostami_810100355,2022.1.1,60.07701872298738,
30.bmp,"(1.74, 3)","(3.49, 3.49)",0,0,0,0,,,,,0,27,27,41,,,,,,,,,,,,,,,,,,,,,,,,,,,649.0428195999702,None,649.542284199968,649.5922224000096,w,0.4577623000368476,649.542284199968,None,,,8101003552,r,r,45,1,f,2022-03-10_19h14.06.425,HW1_Rostami_810100355,2022.1.1,60.07701872298738,
0.bmp,"(-5.25, 3.05)","(5.24, 5.24)",0,0,0,0,,,,,0,28,28,9,,,,,,,,,,,,,,,,,,,,,,,,,,,650.0248885999899,None,650.5246869999683,650.5745326000033,w,1.1072831000201404,650.5246869999683,None,,,8101003552,r,r,45,1,f,2022-03-10_19h14.06.425,HW1_Rostami_810100355,2022.1.1,60.07701872298738,
20.bmp,"(-1.74, -3)","(3.49, 3.49)",0,0,0,0,,,,,0,29,29,31,,,,,,,,,,,,,,,,,,,,,,,,,,,651.6569428000366,None,652.15668679995,652.20650510001,q,1.1296095999423414,652.15668679995,None,,,8101003552,r,r,45,1,f,2022-03-10_19h14.06.425,HW1_Rostami_810100355,2022.1.1,60.07701872298738,
70.bmp,"(0, 6.11)","(5.24, 5.24)",0,0,0,0,,,,,0,30,30,99,,,,,,,,,,,,,,,,,,,,,,,,,,,653.3056749999523,None,653.8049385999329,653.8548235000344,w,0.5920588000444695,653.8049385999329,None,,,8101003552,r,r,45,1,f,2022-03-10_19h14.06.425,HW1_Rostami_810100355,2022.1.1,60.07701872298738,
0.bmp,"(-3.49, 0)","(3.49, 3.49)",0,0,0,0,,,,,0,31,31,4,,,,,,,,,,,,,,,,,,,,,,,,,,,654.4211529999739,None,654.9208044999978,654.9708655000431,w,0.5938979999627918,654.9208044999978,None,,,8101003552,r,r,45,1,f,2022-03-10_19h14.06.425,HW1_Rostami_810100355,2022.1.1,60.07701872298738,
40.bmp,"(-1.74, 3)","(3.49, 3.49)",0,0,0,0,,,,,0,32,32,55,,,,,,,,,,,,,,,,,,,,,,,,,,,655.5372145000147,None,656.0365396999987,656.0867368000327,w,0.7627678000135347,656.0365396999987,None,,,8101003552,r,r,45,1,f,2022-03-10_19h14.06.425,HW1_Rostami_810100355,2022.1.1,60.07701872298738,
70.bmp,"(-1.74, 3)","(3.49, 3.49)",0,0,0,0,,,,,0,33,33,94,,,,,,,,,,,,,,,,,,,,,,,,,,,656.8192055999534,None,657.3190640000394,657.3686935999431,q,0.9060265000443906,657.3190640000394,None,,,8101003552,r,r,45,1,f,2022-03-10_19h14.06.425,HW1_Rostami_810100355,2022.1.1,60.07701872298738,
20.bmp,"(1.74, -3)","(3.49, 3.49)",0,0,0,0,,,,,0,34,34,32,,,,,,,,,,,,,,,,,,,,,,,,,,,658.2509839000413,None,658.7506301000249,658.8009661999531,w,0.5896994000067934,658.7506301000249,None,,,8101003552,r,r,45,1,f,2022-03-10_19h14.06.425,HW1_Rostami_810100355,2022.1.1,60.07701872298738,
80.bmp,"(1.74, 3)","(3.49, 3.49)",0,0,0,0,,,,,0,35,35,106,,,,,,,,,,,,,,,,,,,,,,,,,,,659.3667943000328,None,659.8667646000395,659.9166666000383,w,0.755354999913834,659.8667646000395,None,,,8101003552,r,r,45,1,f,2022-03-10_19h14.06.425,HW1_Rostami_810100355,2022.1.1,60.07701872298738,
50.bmp,"(0, 6.11)","(5.24, 5.24)",0,0,0,0,,,,,0,36,36,73,,,,,,,,,,,,,,,,,,,,,,,,,,,660.6490307999775,None,661.1489816999529,661.1985955999698,w,0.8750676000490785,661.1489816999529,None,,,8101003552,r,r,45,1,f,2022-03-10_19h14.06.425,HW1_Rostami_810100355,2022.1.1,60.07701872298738,
20.bmp,"(-3.49, 0)","(3.49, 3.49)",0,0,0,0,,,,,0,37,37,30,,,,,,,,,,,,,,,,,,,,,,,,,,,662.0477669000393,None,662.5474936999381,662.5973293000134,w,0.6829860000871122,662.5474936999381,None,,,8101003552,r,r,45,1,f,2022-03-10_19h14.06.425,HW1_Rostami_810100355,2022.1.1,60.07701872298738,
40.bmp,"(-5.25, -3.05)","(5.24, 5.24)",0,0,0,0,,,,,0,38,38,62,,,,,,,,,,,,,,,,,,,,,,,,,,,663.2472114999546,None,663.7467625000281,663.7964428999694,w,0.7984695999184623,663.7467625000281,None,,,8101003552,r,r,45,1,f,2022-03-10_19h14.06.425,HW1_Rostami_810100355,2022.1.1,60.07701872298738,
40.bmp,"(5.25, -3.05)","(5.24, 5.24)",0,0,0,0,,,,,0,39,39,64,,,,,,,,,,,,,,,,,,,,,,,,,,,664.5622314999346,None,665.062189499964,665.1120531000197,w,0.8399836999597028,665.062189499964,None,,,8101003552,r,r,45,1,f,2022-03-10_19h14.06.425,HW1_Rostami_810100355,2022.1.1,60.07701872298738,
30.bmp,"(-5.25, -3.05)","(5.24, 5.24)",0,0,0,0,,,,,0,40,40,49,,,,,,,,,,,,,,,,,,,,,,,,,,,665.9279473000206,None,666.4274311999325,666.4775144000305,w,0.6709058000706136,666.4274311999325,None,,,8101003552,r,r,45,1,f,2022-03-10_19h14.06.425,HW1_Rostami_810100355,2022.1.1,60.07701872298738,
60.bmp,"(3.49, 0)","(3.49, 3.49)",0,0,0,0,,,,,0,41,41,79,,,,,,,,,,,,,,,,,,,,,,,,,,,667.1268602999626,None,667.6265194000443,667.676515399944,w,0.566395900095813,667.6265194000443,None,,,8101003552,r,r,45,1,f,2022-03-10_19h14.06.425,HW1_Rostami_810100355,2022.1.1,60.07701872298738,
70.bmp,"(-1.74, -3)","(3.49, 3.49)",0,0,0,0,,,,,0,42,42,96,,,,,,,,,,,,,,,,,,,,,,,,,,,668.2091355000157,None,668.7086201999336,668.7587626000168,w,0.6055131000466645,668.7086201999336,None,,,8101003552,r,r,45,1,f,2022-03-10_19h14.06.425,HW1_Rostami_810100355,2022.1.1,60.07701872298738,
30.bmp,"(0, 0)","(2.18, 2.18)",0,0,0,0,,,,,0,43,43,39,,,,,,,,,,,,,,,,,,,,,,,,,,,669.3415977000259,None,669.8414350999519,669.8913572999882,w,0.8018713999772444,669.8414350999519,None,,,8101003552,r,r,45,1,f,2022-03-10_19h14.06.425,HW1_Rostami_810100355,2022.1.1,60.07701872298738,
40.bmp,"(-1.74, -3)","(3.49, 3.49)",0,0,0,0,,,,,0,44,44,57,,,,,,,,,,,,,,,,,,,,,,,,,,,670.6736401999369,None,671.173260099953,671.2230668000411,w,0.6481551000615582,671.173260099953,None,,,8101003552,r,r,45,1,f,2022-03-10_19h14.06.425,HW1_Rostami_810100355,2022.1.1,60.07701872298738,
70.bmp,"(1.74, -3)","(3.49, 3.49)",0,0,0,0,,,,,0,45,45,97,,,,,,,,,,,,,,,,,,,,,,,,,,,671.8392247000011,None,672.3389204000123,672.3887280999916,w,0.6025622000452131,672.3389204000123,None,,,8101003552,r,r,45,1,f,2022-03-10_19h14.06.425,HW1_Rostami_810100355,2022.1.1,60.07701872298738,
10.bmp,"(-5.25, 3.05)","(5.24, 5.24)",0,0,0,0,,,,,0,46,46,22,,,,,,,,,,,,,,,,,,,,,,,,,,,672.9717079999391,None,673.471219399944,673.5213153000223,w,0.5785340999718755,673.471219399944,None,,,8101003552,r,r,45,1,f,2022-03-10_19h14.06.425,HW1_Rostami_810100355,2022.1.1,60.07701872298738,
0.bmp,"(0, 6.11)","(5.24, 5.24)",0,0,0,0,,,,,0,47,47,8,,,,,,,,,,,,,,,,,,,,,,,,,,,674.0705414999975,None,674.5700739000458,674.6199326999485,w,0.5068681000266224,674.5700739000458,None,,,8101003552,r,r,45,1,f,2022-03-10_19h14.06.425,HW1_Rostami_810100355,2022.1.1,60.07701872298738,
0.bmp,"(5.25, 3.05)","(5.24, 5.24)",0,0,0,0,,,,,0,48,48,7,,,,,,,,,,,,,,,,,,,,,,,,,,,675.1034649999347,None,675.6030696999514,675.6526147000259,w,0.5170574999647215,675.6030696999514,None,,,8101003552,r,r,45,1,f,2022-03-10_19h14.06.425,HW1_Rostami_810100355,2022.1.1,60.07701872298738,
10.bmp,"(0, -6.11)","(5.24, 5.24)",0,0,0,0,,,,,0,49,49,24,,,,,,,,,,,,,,,,,,,,,,,,,,,676.1521899999352,None,676.6519465999445,676.7018030999461,w,0.522002000012435,676.6519465999445,None,,,8101003552,r,r,45,1,f,2022-03-10_19h14.06.425,HW1_Rostami_810100355,2022.1.1,60.07701872298738,
30.bmp,"(-1.74, 3)","(3.49, 3.49)",0,0,0,0,,,,,0,50,50,42,,,,,,,,,,,,,,,,,,,,,,,,,,,677.2010208000429,None,677.7013405000325,677.7509741999675,w,0.7504647000459954,677.7013405000325,None,,,8101003552,r,r,45,1,f,2022-03-10_19h14.06.425,HW1_Rostami_810100355,2022.1.1,60.07701872298738,
20.bmp,"(0, -6.11)","(5.24, 5.24)",0,0,0,0,,,,,0,51,51,37,,,,,,,,,,,,,,,,,,,,,,,,,,,678.4833415000467,None,678.9834925000323,679.0331460000016,w,0.5522415000014007,678.9834925000323,None,,,8101003552,r,r,45,1,f,2022-03-10_19h14.06.425,HW1_Rostami_810100355,2022.1.1,60.07701872298738,
0.bmp,"(1.74, 3)","(3.49, 3.49)",0,0,0,0,,,,,0,52,52,2,,,,,,,,,,,,,,,,,,,,,,,,,,,679.5662606999977,None,680.0657880000072,680.1156437000027,w,0.6717142999405041,680.0657880000072,None,,,8101003552,r,r,45,1,f,2022-03-10_19h14.06.425,HW1_Rostami_810100355,2022.1.1,60.07701872298738,
80.bmp,"(-5.25, -3.05)","(5.24, 5.24)",0,0,0,0,,,,,0,53,53,114,,,,,,,,,,,,,,,,,,,,,,,,,,,680.7649786999682,None,681.2644280999666,681.3145922999829,w,0.7175282000098377,681.2644280999666,None,,,8101003552,r,r,45,1,f,2022-03-10_19h14.06.425,HW1_Rostami_810100355,2022.1.1,60.07701872298738,
50.bmp,"(-5.25, 3.05)","(5.24, 5.24)",0,0,0,0,,,,,0,54,54,74,,,,,,,,,,,,,,,,,,,,,,,,,,,682.0138079000171,None,682.5134400000097,682.5632866999367,w,0.5104561999905854,682.5134400000097,None,,,8101003552,r,r,45,1,f,2022-03-10_19h14.06.425,HW1_Rostami_810100355,2022.1.1,60.07701872298738,
40.bmp,"(1.74, 3)","(3.49, 3.49)",0,0,0,0,,,,,0,55,55,54,,,,,,,,,,,,,,,,,,,,,,,,,,,683.0461902000243,None,683.5458464999683,683.5958395999623,w,0.4859147999668494,683.5458464999683,None,,,8101003552,r,r,45,1,f,2022-03-10_19h14.06.425,HW1_Rostami_810100355,2022.1.1,60.07701872298738,
40.bmp,"(1.74, -3)","(3.49, 3.49)",0,0,0,0,,,,,0,56,56,58,,,,,,,,,,,,,,,,,,,,,,,,,,,684.0621761999791,None,684.5618391999742,684.6113167000003,w,0.561399900005199,684.5618391999742,None,,,8101003552,r,r,45,1,f,2022-03-10_19h14.06.425,HW1_Rostami_810100355,2022.1.1,60.07701872298738,
80.bmp,"(0, 6.11)","(5.24, 5.24)",0,0,0,0,,,,,0,57,57,112,,,,,,,,,,,,,,,,,,,,,,,,,,,685.1443827999756,None,685.643901500036,685.6938673999393,w,0.7128323999932036,685.643901500036,None,,,8101003552,r,r,45,1,f,2022-03-10_19h14.06.425,HW1_Rostami_810100355,2022.1.1,60.07701872298738,
20.bmp,"(-1.74, 3)","(3.49, 3.49)",0,0,0,0,,,,,0,58,58,29,,,,,,,,,,,,,,,,,,,,,,,,,,,686.3765746999998,None,686.8762860000134,686.9261288000271,w,0.755854899995029,686.8762860000134,None,,,8101003552,r,r,45,1,f,2022-03-10_19h14.06.425,HW1_Rostami_810100355,2022.1.1,60.07701872298738,
70.bmp,"(-5.25, 3.05)","(5.24, 5.24)",0,0,0,0,,,,,0,59,59,100,,,,,,,,,,,,,,,,,,,,,,,,,,,687.6587423000019,None,688.1585632000351,688.2084471000126,w,0.99707440007478,688.1585632000351,None,,,8101003552,r,r,45,1,f,2022-03-10_19h14.06.425,HW1_Rostami_810100355,2022.1.1,60.07701872298738,
10.bmp,"(5.25, 3.05)","(5.24, 5.24)",0,0,0,0,,,,,0,60,60,20,,,,,,,,,,,,,,,,,,,,,,,,,,,689.1745042999974,None,689.6740506000351,689.7240638999501,w,0.6052888999693096,689.6740506000351,None,,,8101003552,r,r,45,1,f,2022-03-10_19h14.06.425,HW1_Rostami_810100355,2022.1.1,60.07701872298738,
40.bmp,"(5.25, 3.05)","(5.24, 5.24)",0,0,0,0,,,,,0,61,61,59,,,,,,,,,,,,,,,,,,,,,,,,,,,690.3068685999606,None,690.8065023999661,690.8563380000414,q,1.0085546999471262,690.8065023999661,None,,,8101003552,r,r,45,1,f,2022-03-10_19h14.06.425,HW1_Rostami_810100355,2022.1.1,60.07701872298738,
80.bmp,"(0, 0)","(2.18, 2.18)",0,0,0,0,,,,,0,62,62,104,,,,,,,,,,,,,,,,,,,,,,,,,,,691.8386744000018,None,692.3385503999889,692.388399999938,q,0.7995273999404162,692.3385503999889,None,,,8101003552,r,r,45,1,f,2022-03-10_19h14.06.425,HW1_Rostami_810100355,2022.1.1,60.07701872298738,
0.bmp,"(-5.25, -3.05)","(5.24, 5.24)",0,0,0,0,,,,,0,63,63,10,,,,,,,,,,,,,,,,,,,,,,,,,,,693.1705266999779,None,693.6704489999684,693.7203298000386,q,1.2432879999978468,693.6704489999684,None,,,8101003552,r,r,45,1,f,2022-03-10_19h14.06.425,HW1_Rostami_810100355,2022.1.1,60.07701872298738,
20.bmp,"(5.25, 3.05)","(5.24, 5.24)",0,0,0,0,,,,,0,64,64,33,,,,,,,,,,,,,,,,,,,,,,,,,,,694.9360055000288,None,695.4354837000137,695.4853919999441,w,0.6620848999591544,695.4354837000137,None,,,8101003552,r,r,45,1,f,2022-03-10_19h14.06.425,HW1_Rostami_810100355,2022.1.1,60.07701872298738,
0.bmp,"(-1.74, -3)","(3.49, 3.49)",0,0,0,0,,,,,0,65,65,5,,,,,,,,,,,,,,,,,,,,,,,,,,,696.1181000999641,None,696.618101399974,696.6678468999453,q,1.3211921999463812,696.618101399974,None,,,8101003552,r,r,45,1,f,2022-03-10_19h14.06.425,HW1_Rostami_810100355,2022.1.1,60.07701872298738,
10.bmp,"(-3.49, 0)","(3.49, 3.49)",0,0,0,0,,,,,0,66,66,17,,,,,,,,,,,,,,,,,,,,,,,,,,,697.9667910999851,None,698.4660675999476,698.5158524999861,q,1.2024784000823274,698.4660675999476,None,,,8101003552,r,r,45,1,f,2022-03-10_19h14.06.425,HW1_Rostami_810100355,2022.1.1,60.07701872298738,
40.bmp,"(-5.25, 3.05)","(5.24, 5.24)",0,0,0,0,,,,,0,67,67,61,,,,,,,,,,,,,,,,,,,,,,,,,,,699.698463400011,None,700.1980351000093,700.2478330000304,w,0.812589899986051,700.1980351000093,None,,,8101003552,r,r,45,1,f,2022-03-10_19h14.06.425,HW1_Rostami_810100355,2022.1.1,60.07701872298738,
10.bmp,"(0, 0)","(2.18, 2.18)",0,0,0,0,,,,,0,68,68,13,,,,,,,,,,,,,,,,,,,,,,,,,,,701.0304575000191,None,701.5302055999637,701.5800761999562,w,0.9664347999496385,701.5302055999637,None,,,8101003552,r,r,45,1,f,2022-03-10_19h14.06.425,HW1_Rostami_810100355,2022.1.1,60.07701872298738,
50.bmp,"(1.74, 3)","(3.49, 3.49)",0,0,0,0,,,,,0,69,69,67,,,,,,,,,,,,,,,,,,,,,,,,,,,702.5292257999536,None,703.0287541999714,703.0788431999972,w,0.7926495999563485,703.0287541999714,None,,,8101003552,r,r,45,1,f,2022-03-10_19h14.06.425,HW1_Rostami_810100355,2022.1.1,60.07701872298738,
10.bmp,"(-1.74, 3)","(3.49, 3.49)",0,0,0,0,,,,,0,70,70,16,,,,,,,,,,,,,,,,,,,,,,,,,,,703.8448880999349,None,704.3446220000042,704.3941997999791,q,0.9308579999487847,704.3446220000042,None,,,8101003552,r,r,45,1,f,2022-03-10_19h14.06.425,HW1_Rostami_810100355,2022.1.1,60.07701872298738,
70.bmp,"(0, 0)","(2.18, 2.18)",0,0,0,0,,,,,0,71,71,91,,,,,,,,,,,,,,,,,,,,,,,,,,,705.2932825000025,None,705.7929913999978,705.8430523000425,q,0.9543427999597043,705.7929913999978,None,,,8101003552,r,r,45,1,f,2022-03-10_19h14.06.425,HW1_Rostami_810100355,2022.1.1,60.07701872298738,
30.bmp,"(1.74, -3)","(3.49, 3.49)",0,0,0,0,,,,,0,72,72,45,,,,,,,,,,,,,,,,,,,,,,,,,,,706.7752570000011,None,707.2750883999979,707.324802899966,q,1.3322169999592006,707.2750883999979,None,,,8101003552,r,r,45,1,f,2022-03-10_19h14.06.425,HW1_Rostami_810100355,2022.1.1,60.07701872298738,
70.bmp,"(-3.49, 0)","(3.49, 3.49)",0,0,0,0,,,,,0,73,73,95,,,,,,,,,,,,,,,,,,,,,,,,,,,708.6237267999677,None,709.1238562000217,709.1737244999968,q,2.05735569994431,709.1238562000217,None,,,8101003552,r,r,45,1,f,2022-03-10_19h14.06.425,HW1_Rostami_810100355,2022.1.1,60.07701872298738,
50.bmp,"(0, 0)","(2.18, 2.18)",0,0,0,0,,,,,0,74,74,65,,,,,,,,,,,,,,,,,,,,,,,,,,,711.2049395999638,None,711.7046088000061,711.7547324999468,w,0.6611567999934778,711.7046088000061,None,,,8101003552,r,r,45,1,f,2022-03-10_19h14.06.425,HW1_Rostami_810100355,2022.1.1,60.07701872298738,
80.bmp,"(5.25, 3.05)","(5.24, 5.24)",0,0,0,0,,,,,0,75,75,111,,,,,,,,,,,,,,,,,,,,,,,,,,,712.3874720999738,None,712.8872764999978,712.9371517000254,w,0.7050880000460893,712.8872764999978,None,,,8101003552,r,r,45,1,f,2022-03-10_19h14.06.425,HW1_Rostami_810100355,2022.1.1,60.07701872298738,
80.bmp,"(-3.49, 0)","(3.49, 3.49)",0,0,0,0,,,,,0,76,76,108,,,,,,,,,,,,,,,,,,,,,,,,,,,713.619884600048,None,714.1193345999345,714.1691767999437,q,1.2136140000075102,714.1193345999345,None,,,8101003552,r,r,45,1,f,2022-03-10_19h14.06.425,HW1_Rostami_810100355,2022.1.1,60.07701872298738,
0.bmp,"(1.74, -3)","(3.49, 3.49)",0,0,0,0,,,,,0,77,77,6,,,,,,,,,,,,,,,,,,,,,,,,,,,715.3516043999698,None,715.8509421999333,715.9008114000317,w,1.1978850000305101,715.8509421999333,None,,,8101003552,r,r,45,1,f,2022-03-10_19h14.06.425,HW1_Rostami_810100355,2022.1.1,60.07701872298738,
70.bmp,"(5.25, 3.05)","(5.24, 5.24)",0,0,0,0,,,,,0,78,78,98,,,,,,,,,,,,,,,,,,,,,,,,,,,717.0665978000034,None,717.5664561999729,717.616079499945,w,0.7622022000141442,717.5664561999729,None,,,8101003552,r,r,45,1,f,2022-03-10_19h14.06.425,HW1_Rostami_810100355,2022.1.1,60.07701872298738,
10.bmp,"(0, 6.11)","(5.24, 5.24)",0,0,0,0,,,,,0,79,79,21,,,,,,,,,,,,,,,,,,,,,,,,,,,718.3485419999342,None,718.8485009999713,718.898760800017,w,0.7328721999656409,718.8485009999713,None,,,8101003552,r,r,45,1,f,2022-03-10_19h14.06.425,HW1_Rostami_810100355,2022.1.1,60.07701872298738,
60.bmp,"(0, 0)","(2.18, 2.18)",0,0,0,0,,,,,0,80,80,78,,,,,,,,,,,,,,,,,,,,,,,,,,,719.5978395999409,None,720.0976514000213,720.1474808999337,w,0.7159148999489844,720.0976514000213,None,,,8101003552,r,r,45,1,f,2022-03-10_19h14.06.425,HW1_Rostami_810100355,2022.1.1,60.07701872298738,
40.bmp,"(-3.49, 0)","(3.49, 3.49)",0,0,0,0,,,,,0,81,81,56,,,,,,,,,,,,,,,,,,,,,,,,,,,720.8299704999663,None,721.3295976000372,721.3794645000016,q,1.2920016000280157,721.3295976000372,None,,,8101003552,r,r,45,1,f,2022-03-10_19h14.06.425,HW1_Rostami_810100355,2022.1.1,60.07701872298738,
20.bmp,"(-5.25, -3.05)","(5.24, 5.24)",0,0,0,0,,,,,0,82,82,36,,,,,,,,,,,,,,,,,,,,,,,,,,,722.6450530999573,None,723.1446598999901,723.1945591999684,w,0.8662916999310255,723.1446598999901,None,,,8101003552,r,r,45,1,f,2022-03-10_19h14.06.425,HW1_Rostami_810100355,2022.1.1,60.07701872298738,
30.bmp,"(5.25, 3.05)","(5.24, 5.24)",0,0,0,0,,,,,0,83,83,46,,,,,,,,,,,,,,,,,,,,,,,,,,,724.027532099979,None,724.5269445000449,724.5766840999713,w,0.6598382999654859,724.5269445000449,None,,,8101003552,r,r,45,1,f,2022-03-10_19h14.06.425,HW1_Rostami_810100355,2022.1.1,60.07701872298738,
40.bmp,"(0, -6.11)","(5.24, 5.24)",0,0,0,0,,,,,0,84,84,63,,,,,,,,,,,,,,,,,,,,,,,,,,,725.2095381999388,None,725.7090348999482,725.7589398999698,w,0.6807989999651909,725.7090348999482,None,,,8101003552,r,r,45,1,f,2022-03-10_19h14.06.425,HW1_Rostami_810100355,2022.1.1,60.07701872298738,
0.bmp,"(0, 0)","(2.18, 2.18)",0,0,0,0,,,,,0,85,85,0,,,,,,,,,,,,,,,,,,,,,,,,,,,726.4084749999456,None,726.9080337999621,726.958331199945,w,0.7195416999747977,726.9080337999621,None,,,8101003552,r,r,45,1,f,2022-03-10_19h14.06.425,HW1_Rostami_810100355,2022.1.1,60.07701872298738,
60.bmp,"(-5.25, 3.05)","(5.24, 5.24)",0,0,0,0,,,,,0,86,86,87,,,,,,,,,,,,,,,,,,,,,,,,,,,727.6573725999333,None,728.1569967999822,728.206891000038,w,0.7179660999681801,728.1569967999822,None,,,8101003552,r,r,45,1,f,2022-03-10_19h14.06.425,HW1_Rostami_810100355,2022.1.1,60.07701872298738,
50.bmp,"(5.25, -3.05)","(5.24, 5.24)",0,0,0,0,,,,,0,87,87,77,,,,,,,,,,,,,,,,,,,,,,,,,,,728.9064265999477,None,729.406054800027,729.455882600043,w,0.7970493999309838,729.406054800027,None,,,8101003552,r,r,45,1,f,2022-03-10_19h14.06.425,HW1_Rostami_810100355,2022.1.1,60.07701872298738,
80.bmp,"(1.74, -3)","(3.49, 3.49)",0,0,0,0,,,,,0,88,88,110,,,,,,,,,,,,,,,,,,,,,,,,,,,730.2222614999628,None,730.7216910000425,730.7711871999782,w,0.6993188000051305,730.7216910000425,None,,,8101003552,r,r,45,1,f,2022-03-10_19h14.06.425,HW1_Rostami_810100355,2022.1.1,60.07701872298738,
10.bmp,"(-1.74, -3)","(3.49, 3.49)",0,0,0,0,,,,,0,89,89,18,,,,,,,,,,,,,,,,,,,,,,,,,,,731.4376730000367,None,731.9372568000108,731.9867634000257,w,0.6943775999825448,731.9372568000108,None,,,8101003552,r,r,45,1,f,2022-03-10_19h14.06.425,HW1_Rostami_810100355,2022.1.1,60.07701872298738,
80.bmp,"(0, -6.11)","(5.24, 5.24)",0,0,0,0,,,,,0,90,90,115,,,,,,,,,,,,,,,,,,,,,,,,,,,732.6532563000219,None,733.1528811999597,733.2027081999695,w,0.7059878000291064,733.1528811999597,None,,,8101003552,r,r,45,1,f,2022-03-10_19h14.06.425,HW1_Rostami_810100355,2022.1.1,60.07701872298738,
10.bmp,"(1.74, 3)","(3.49, 3.49)",0,0,0,0,,,,,0,91,91,15,,,,,,,,,,,,,,,,,,,,,,,,,,,733.8853513000067,None,734.3849107000278,734.4347587999655,w,0.6294372000265867,734.3849107000278,None,,,8101003552,r,r,45,1,f,2022-03-10_19h14.06.425,HW1_Rostami_810100355,2022.1.1,60.07701872298738,
70.bmp,"(-5.25, -3.05)","(5.24, 5.24)",0,0,0,0,,,,,0,92,92,101,,,,,,,,,,,,,,,,,,,,,,,,,,,735.0343621999491,None,735.5340665000258,735.583897799952,w,0.7574960000347346,735.5340665000258,None,,,8101003552,r,r,45,1,f,2022-03-10_19h14.06.425,HW1_Rostami_810100355,2022.1.1,60.07701872298738,
60.bmp,"(0, -6.11)","(5.24, 5.24)",0,0,0,0,,,,,0,93,93,89,,,,,,,,,,,,,,,,,,,,,,,,,,,736.3167012999766,None,736.8163822999923,736.86627150001,q,0.9515108000487089,736.8163822999923,None,,,8101003552,r,r,45,1,f,2022-03-10_19h14.06.425,HW1_Rostami_810100355,2022.1.1,60.07701872298738,
80.bmp,"(3.49, 0)","(3.49, 3.49)",0,0,0,0,,,,,0,94,94,105,,,,,,,,,,,,,,,,,,,,,,,,,,,737.7984130999539,None,738.2979322000174,738.347767099971,w,0.6976742000551894,738.2979322000174,None,,,8101003552,r,r,45,1,f,2022-03-10_19h14.06.425,HW1_Rostami_810100355,2022.1.1,60.07701872298738,
50.bmp,"(-1.74, 3)","(3.49, 3.49)",0,0,0,0,,,,,0,95,95,68,,,,,,,,,,,,,,,,,,,,,,,,,,,739.0138760999544,None,739.5138929999666,739.5638772000093,q,0.9458379000425339,739.5138929999666,None,,,8101003552,r,r,45,1,f,2022-03-10_19h14.06.425,HW1_Rostami_810100355,2022.1.1,60.07701872298738,
60.bmp,"(1.74, 3)","(3.49, 3.49)",0,0,0,0,,,,,0,96,96,80,,,,,,,,,,,,,,,,,,,,,,,,,,,740.479598499951,None,740.9790272000246,741.0289074999746,w,0.7674343000398949,740.9790272000246,None,,,8101003552,r,r,45,1,f,2022-03-10_19h14.06.425,HW1_Rostami_810100355,2022.1.1,60.07701872298738,
40.bmp,"(0, 6.11)","(5.24, 5.24)",0,0,0,0,,,,,0,97,97,60,,,,,,,,,,,,,,,,,,,,,,,,,,,741.7780846999958,None,742.2783533999464,742.3282865999499,w,1.0538748999824747,742.2783533999464,None,,,8101003552,r,r,45,1,f,2022-03-10_19h14.06.425,HW1_Rostami_810100355,2022.1.1,60.07701872298738,
80.bmp,"(-1.74, -3)","(3.49, 3.49)",0,0,0,0,,,,,0,98,98,109,,,,,,,,,,,,,,,,,,,,,,,,,,,743.3600635000039,None,743.8602290999843,743.9100248999894,w,1.3072346999542788,743.8602290999843,None,,,8101003552,r,r,45,1,f,2022-03-10_19h14.06.425,HW1_Rostami_810100355,2022.1.1,60.07701872298738,
60.bmp,"(-5.25, -3.05)","(5.24, 5.24)",0,0,0,0,,,,,0,99,99,88,,,,,,,,,,,,,,,,,,,,,,,,,,,745.1926325999666,None,745.6921034000115,745.7418947999831,q,0.6624707999872044,745.6921034000115,None,,,8101003552,r,r,45,1,f,2022-03-10_19h14.06.425,HW1_Rostami_810100355,2022.1.1,60.07701872298738,
10.bmp,"(1.74, -3)","(3.49, 3.49)",0,0,0,0,,,,,0,100,100,19,,,,,,,,,,,,,,,,,,,,,,,,,,,746.3745263000019,None,746.8742050000001,746.9242100999691,w,0.8458482000278309,746.8742050000001,None,,,8101003552,r,r,45,1,f,2022-03-10_19h14.06.425,HW1_Rostami_810100355,2022.1.1,60.07701872298738,
30.bmp,"(0, -6.11)","(5.24, 5.24)",0,0,0,0,,,,,0,101,101,50,,,,,,,,,,,,,,,,,,,,,,,,,,,747.7399062999757,None,748.239877199987,748.2890953000169,q,1.6284975999733433,748.239877199987,None,,,8101003552,r,r,45,1,f,2022-03-10_19h14.06.425,HW1_Rostami_810100355,2022.1.1,60.07701872298738,
80.bmp,"(-1.74, 3)","(3.49, 3.49)",0,0,0,0,,,,,0,102,102,107,,,,,,,,,,,,,,,,,,,,,,,,,,,749.8881784999976,None,750.3880516999634,750.4377839999506,w,0.8113117000320926,750.3880516999634,None,,,8101003552,r,r,45,1,f,2022-03-10_19h14.06.425,HW1_Rostami_810100355,2022.1.1,60.07701872298738,
50.bmp,"(5.25, 3.05)","(5.24, 5.24)",0,0,0,0,,,,,0,103,103,72,,,,,,,,,,,,,,,,,,,,,,,,,,,751.2203293000348,None,751.7199917000253,751.7700074999593,w,0.6815678999992087,751.7199917000253,None,,,8101003552,r,r,45,1,f,2022-03-10_19h14.06.425,HW1_Rostami_810100355,2022.1.1,60.07701872298738,
50.bmp,"(-5.25, -3.05)","(5.24, 5.24)",0,0,0,0,,,,,0,104,104,75,,,,,,,,,,,,,,,,,,,,,,,,,,,752.4192592999898,None,752.919034600025,752.9685058000032,w,0.7416826999979094,752.919034600025,None,,,8101003552,r,r,45,1,f,2022-03-10_19h14.06.425,HW1_Rostami_810100355,2022.1.1,60.07701872298738,
20.bmp,"(5.25, -3.05)","(5.24, 5.24)",0,0,0,0,,,,,0,105,105,38,,,,,,,,,,,,,,,,,,,,,,,,,,,753.684941799962,None,754.1845542000374,754.23439769994,w,0.6092906000558287,754.1845542000374,None,,,8101003552,r,r,45,1,f,2022-03-10_19h14.06.425,HW1_Rostami_810100355,2022.1.1,60.07701872298738,
50.bmp,"(-1.74, -3)","(3.49, 3.49)",0,0,0,0,,,,,0,106,106,70,,,,,,,,,,,,,,,,,,,,,,,,,,,754.8172956999624,None,755.3167460999684,755.3665931000141,w,0.6746944000478834,755.3167460999684,None,,,8101003552,r,r,45,1,f,2022-03-10_19h14.06.425,HW1_Rostami_810100355,2022.1.1,60.07701872298738,
0.bmp,"(3.49, 0)","(3.49, 3.49)",0,0,0,0,,,,,0,107,107,1,,,,,,,,,,,,,,,,,,,,,,,,,,,756.0163177000359,None,756.5156567000085,756.565429899958,w,0.6180935999145731,756.5156567000085,None,,,8101003552,r,r,45,1,f,2022-03-10_19h14.06.425,HW1_Rostami_810100355,2022.1.1,60.07701872298738,
60.bmp,"(1.74, -3)","(3.49, 3.49)",0,0,0,0,,,,,0,108,108,84,,,,,,,,,,,,,,,,,,,,,,,,,,,757.1652406000067,None,757.6647187999915,757.7145701999543,w,0.5226266999961808,757.6647187999915,None,,,8101003552,r,r,45,1,f,2022-03-10_19h14.06.425,HW1_Rostami_810100355,2022.1.1,60.07701872298738,
60.bmp,"(0, 6.11)","(5.24, 5.24)",0,0,0,0,,,,,0,109,109,86,,,,,,,,,,,,,,,,,,,,,,,,,,,758.2139690000331,None,758.7134876999771,758.7633007999975,w,0.5500528999837115,758.7134876999771,None,,,8101003552,r,r,45,1,f,2022-03-10_19h14.06.425,HW1_Rostami_810100355,2022.1.1,60.07701872298738,
60.bmp,"(-1.74, 3)","(3.49, 3.49)",0,0,0,0,,,,,0,110,110,81,,,,,,,,,,,,,,,,,,,,,,,,,,,759.279781899997,None,759.7794897999847,759.8295158999972,w,0.7564731000456959,759.7794897999847,None,,,8101003552,r,r,45,1,f,2022-03-10_19h14.06.425,HW1_Rostami_810100355,2022.1.1,60.07701872298738,
