stm,pos,size,loop.thisRepN,loop.thisTrialN,loop.thisN,loop.thisIndex,loopR.thisRepN,loopR.thisTrialN,loopR.thisN,loopR.thisIndex,loopL.thisRepN,loopL.thisTrialN,loopL.thisN,loopL.thisIndex,Hello.started,Hello.stopped,key_r.started,key_r.stopped,key_gr.started,key_gr.stopped,key_esc_r.keys,key_esc_r.rt,key_esc_r.started,key_esc_r.stopped,fix_right.started,fix_right.stopped,face_r.started,face_r.stopped,key_sel_r.keys,key_sel_r.rt,key_sel_r.started,key_sel_r.stopped,key_l.started,key_l.stopped,key_gl.started,key_gl.stopped,key_esc_l.keys,key_esc_l.rt,key_esc_l.started,key_esc_l.stopped,fix_left.started,fix_left.stopped,face_l.started,face_l.stopped,key_sel_l.keys,key_sel_l.rt,key_sel_l.started,key_sel_l.stopped,bye.started,bye.stopped,sbj,hndns,eye,age,edu,date,expName,psychopyVersion,frameRate,uhnd
30.bmp,"(-3.49, 0)","(3.49, 3.49)",0,0,0,0,0,0,0,43,,,,,112.809686,None,114.8408809,None,114.8408809,None,space,13.5444654,114.8408809,None,128.4267847,None,128.9232075,128.9731978,p,1.5327399,128.9232075,None,,,,,,,,,,,,,,,,,,,8101003551,r,r,25,3,2022-03-10_11h43.42.757,HW1_Rostami_810100355,2022.1.1,60.04790623,r
60.bmp,"(-5.25, -3.05)","(5.24, 5.24)",0,0,0,0,0,1,1,88,,,,,,,,,,,,,,,130.4888209,None,130.9884958,131.0380868,p,0.7401107,130.9884958,None,,,,,,,,,,,,,,,,,,,8101003551,r,r,25,3,2022-03-10_11h43.42.757,HW1_Rostami_810100355,2022.1.1,60.04790623,r
70.bmp,"(-1.74, 3)","(3.49, 3.49)",0,0,0,0,0,2,2,94,,,,,,,,,,,,,,,131.7541577,None,132.2534315,132.3032653,p,0.7735225,132.2534315,None,,,,,,,,,,,,,,,,,,,8101003551,r,r,25,3,2022-03-10_11h43.42.757,HW1_Rostami_810100355,2022.1.1,60.04790623,r
10.bmp,"(-5.25, 3.05)","(5.24, 5.24)",0,0,0,0,0,3,3,22,,,,,,,,,,,,,,,133.0528077,None,133.5526979,133.6025488,p,0.7323334,133.5526979,None,,,,,,,,,,,,,,,,,,,8101003551,r,r,25,3,2022-03-10_11h43.42.757,HW1_Rostami_810100355,2022.1.1,60.04790623,r
40.bmp,"(1.74, -3)","(3.49, 3.49)",0,0,0,0,0,4,4,58,,,,,,,,,,,,,,,134.3019815,None,134.801763,134.8515604,p,0.6903778,134.801763,None,,,,,,,,,,,,,,,,,,,8101003551,r,r,25,3,2022-03-10_11h43.42.757,HW1_Rostami_810100355,2022.1.1,60.04790623,r
20.bmp,"(5.25, 3.05)","(5.24, 5.24)",0,0,0,0,0,5,5,33,,,,,,,,,,,,,,,135.5175061,None,136.0173022,136.0669066,p,0.8825889,136.0173022,None,,,,,,,,,,,,,,,,,,,8101003551,r,r,25,3,2022-03-10_11h43.42.757,HW1_Rostami_810100355,2022.1.1,60.04790623,r
60.bmp,"(0, 0)","(2.18, 2.18)",0,0,0,0,0,6,6,78,,,,,,,,,,,,,,,136.9166227,None,137.4325479,137.4825657,p,0.7116335,137.4325479,None,,,,,,,,,,,,,,,,,,,8101003551,r,r,25,3,2022-03-10_11h43.42.757,HW1_Rostami_810100355,2022.1.1,60.04790623,r
80.bmp,"(-5.25, 3.05)","(5.24, 5.24)",0,0,0,0,0,7,7,113,,,,,,,,,,,,,,,138.1650212,None,138.6650237,138.7145219,p,1.1469843,138.6650237,None,,,,,,,,,,,,,,,,,,,8101003551,r,r,25,3,2022-03-10_11h43.42.757,HW1_Rostami_810100355,2022.1.1,60.04790623,r
0.bmp,"(-5.25, -3.05)","(5.24, 5.24)",0,0,0,0,0,8,8,10,,,,,,,,,,,,,,,139.830308,None,140.3300006,140.3796943,p,0.7125337,140.3300006,None,,,,,,,,,,,,,,,,,,,8101003551,r,r,25,3,2022-03-10_11h43.42.757,HW1_Rostami_810100355,2022.1.1,60.04790623,r
10.bmp,"(0, 6.11)","(5.24, 5.24)",0,0,0,0,0,9,9,21,,,,,,,,,,,,,,,141.0629009,None,141.5623978,141.6121326,p,0.6916644,141.5623978,None,,,,,,,,,,,,,,,,,,,8101003551,r,r,25,3,2022-03-10_11h43.42.757,HW1_Rostami_810100355,2022.1.1,60.04790623,r
50.bmp,"(-1.74, -3)","(3.49, 3.49)",0,0,0,0,0,10,10,70,,,,,,,,,,,,,,,142.2779262,None,142.7777818,142.8275974,p,1.0446918,142.7777818,None,,,,,,,,,,,,,,,,,,,8101003551,r,r,25,3,2022-03-10_11h43.42.757,HW1_Rostami_810100355,2022.1.1,60.04790623,r
0.bmp,"(5.25, -3.05)","(5.24, 5.24)",0,0,0,0,0,11,11,12,,,,,,,,,,,,,,,143.8433744,None,144.3433845,144.3929567,p,1.780939,144.3433845,None,,,,,,,,,,,,,,,,,,,8101003551,r,r,25,3,2022-03-10_11h43.42.757,HW1_Rostami_810100355,2022.1.1,60.04790623,r
70.bmp,"(5.25, 3.05)","(5.24, 5.24)",0,0,0,0,0,12,12,98,,,,,,,,,,,,,,,146.1414783,None,146.6411136,146.6911963,p,0.9802775,146.6411136,None,,,,,,,,,,,,,,,,,,,8101003551,r,r,25,3,2022-03-10_11h43.42.757,HW1_Rostami_810100355,2022.1.1,60.04790623,r
40.bmp,"(1.74, 3)","(3.49, 3.49)",0,0,0,0,0,13,13,54,,,,,,,,,,,,,,,147.6402131,None,148.1398944,148.1897216,p,0.9567185,148.1398944,None,,,,,,,,,,,,,,,,,,,8101003551,r,r,25,3,2022-03-10_11h43.42.757,HW1_Rostami_810100355,2022.1.1,60.04790623,r
10.bmp,"(-1.74, -3)","(3.49, 3.49)",0,0,0,0,0,14,14,18,,,,,,,,,,,,,,,149.1220651,None,149.6217357,149.6715806,p,0.7579303,149.6217357,None,,,,,,,,,,,,,,,,,,,8101003551,r,r,25,3,2022-03-10_11h43.42.757,HW1_Rostami_810100355,2022.1.1,60.04790623,r
70.bmp,"(-5.25, 3.05)","(5.24, 5.24)",0,0,0,0,0,15,15,100,,,,,,,,,,,,,,,150.404487,None,150.9040769,150.9539212,p,0.8933477,150.9040769,None,,,,,,,,,,,,,,,,,,,8101003551,r,r,25,3,2022-03-10_11h43.42.757,HW1_Rostami_810100355,2022.1.1,60.04790623,r
80.bmp,"(-3.49, 0)","(3.49, 3.49)",0,0,0,0,0,16,16,108,,,,,,,,,,,,,,,151.8201133,None,152.3194654,152.3692497,p,0.7060234,152.3194654,None,,,,,,,,,,,,,,,,,,,8101003551,r,r,25,3,2022-03-10_11h43.42.757,HW1_Rostami_810100355,2022.1.1,60.04790623,r
40.bmp,"(5.25, -3.05)","(5.24, 5.24)",0,0,0,0,0,17,17,64,,,,,,,,,,,,,,,153.0521487,None,153.5519488,153.6019297,p,0.7566383,153.5519488,None,,,,,,,,,,,,,,,,,,,8101003551,r,r,25,3,2022-03-10_11h43.42.757,HW1_Rostami_810100355,2022.1.1,60.04790623,r
60.bmp,"(1.74, 3)","(3.49, 3.49)",0,0,0,0,0,18,18,80,,,,,,,,,,,,,,,154.3343572,None,154.83413,154.8838417,p,0.6543427,154.83413,None,,,,,,,,,,,,,,,,,,,8101003551,r,r,25,3,2022-03-10_11h43.42.757,HW1_Rostami_810100355,2022.1.1,60.04790623,r
60.bmp,"(-1.74, -3)","(3.49, 3.49)",0,0,0,0,0,19,19,83,,,,,,,,,,,,,,,155.5169177,None,156.0166191,156.0662872,p,0.6993992,156.0166191,None,,,,,,,,,,,,,,,,,,,8101003551,r,r,25,3,2022-03-10_11h43.42.757,HW1_Rostami_810100355,2022.1.1,60.04790623,r
40.bmp,"(-5.25, -3.05)","(5.24, 5.24)",0,0,0,0,0,20,20,62,,,,,,,,,,,,,,,156.7327486,None,157.232299,157.2822455,p,0.9459326,157.232299,None,,,,,,,,,,,,,,,,,,,8101003551,r,r,25,3,2022-03-10_11h43.42.757,HW1_Rostami_810100355,2022.1.1,60.04790623,r
30.bmp,"(-1.74, 3)","(3.49, 3.49)",0,0,0,0,0,21,21,42,,,,,,,,,,,,,,,158.197926,None,158.6976113,158.7475335,p,1.543178,158.6976113,None,,,,,,,,,,,,,,,,,,,8101003551,r,r,25,3,2022-03-10_11h43.42.757,HW1_Rostami_810100355,2022.1.1,60.04790623,r
0.bmp,"(0, -6.11)","(5.24, 5.24)",0,0,0,0,0,22,22,11,,,,,,,,,,,,,,,160.2628948,None,160.7626222,160.8123009,p,1.9893883,160.7626222,None,,,,,,,,,,,,,,,,,,,8101003551,r,r,25,3,2022-03-10_11h43.42.757,HW1_Rostami_810100355,2022.1.1,60.04790623,r
40.bmp,"(0, 0)","(2.18, 2.18)",0,0,0,0,0,23,23,52,,,,,,,,,,,,,,,162.7772296,None,163.2768127,163.3266787,p,1.2936296,163.2768127,None,,,,,,,,,,,,,,,,,,,8101003551,r,r,25,3,2022-03-10_11h43.42.757,HW1_Rostami_810100355,2022.1.1,60.04790623,r
20.bmp,"(-3.49, 0)","(3.49, 3.49)",0,0,0,0,0,24,24,30,,,,,,,,,,,,,,,164.5919743,None,165.0918588,165.1417669,p,1.2121852,165.0918588,None,,,,,,,,,,,,,,,,,,,8101003551,r,r,25,3,2022-03-10_11h43.42.757,HW1_Rostami_810100355,2022.1.1,60.04790623,r
70.bmp,"(-3.49, 0)","(3.49, 3.49)",0,0,0,0,0,25,25,95,,,,,,,,,,,,,,,166.3240239,None,166.8235918,166.873643,p,0.9460713,166.8235918,None,,,,,,,,,,,,,,,,,,,8101003551,r,r,25,3,2022-03-10_11h43.42.757,HW1_Rostami_810100355,2022.1.1,60.04790623,r
40.bmp,"(-1.74, 3)","(3.49, 3.49)",0,0,0,0,0,26,26,55,,,,,,,,,,,,,,,167.7890117,None,168.2889428,168.3388629,p,0.7760996,168.2889428,None,,,,,,,,,,,,,,,,,,,8101003551,r,r,25,3,2022-03-10_11h43.42.757,HW1_Rostami_810100355,2022.1.1,60.04790623,r
70.bmp,"(3.49, 0)","(3.49, 3.49)",0,0,0,0,0,27,27,92,,,,,,,,,,,,,,,169.0878525,None,169.5875357,169.6373886,p,0.6805301,169.5875357,None,,,,,,,,,,,,,,,,,,,8101003551,r,r,25,3,2022-03-10_11h43.42.757,HW1_Rostami_810100355,2022.1.1,60.04790623,r
60.bmp,"(3.49, 0)","(3.49, 3.49)",0,0,0,0,0,28,28,79,,,,,,,,,,,,,,,170.2868372,None,170.7869478,170.8366918,p,0.9508487,170.7869478,None,,,,,,,,,,,,,,,,,,,8101003551,r,r,25,3,2022-03-10_11h43.42.757,HW1_Rostami_810100355,2022.1.1,60.04790623,r
50.bmp,"(-3.49, 0)","(3.49, 3.49)",0,0,0,0,0,29,29,69,,,,,,,,,,,,,,,171.7694203,None,172.268679,172.3185113,p,0.7261946,172.268679,None,,,,,,,,,,,,,,,,,,,8101003551,r,r,25,3,2022-03-10_11h43.42.757,HW1_Rostami_810100355,2022.1.1,60.04790623,r
60.bmp,"(5.25, -3.05)","(5.24, 5.24)",0,0,0,0,0,30,30,90,,,,,,,,,,,,,,,173.0184026,None,173.5179856,173.567812,p,0.6699355,173.5179856,None,,,,,,,,,,,,,,,,,,,8101003551,r,r,25,3,2022-03-10_11h43.42.757,HW1_Rostami_810100355,2022.1.1,60.04790623,r
40.bmp,"(5.25, 3.05)","(5.24, 5.24)",0,0,0,0,0,31,31,59,,,,,,,,,,,,,,,174.217023,None,174.7169095,174.7665134,p,1.0525549,174.7169095,None,,,,,,,,,,,,,,,,,,,8101003551,r,r,25,3,2022-03-10_11h43.42.757,HW1_Rostami_810100355,2022.1.1,60.04790623,r
20.bmp,"(-5.25, -3.05)","(5.24, 5.24)",0,0,0,0,0,32,32,36,,,,,,,,,,,,,,,175.7993803,None,176.2990846,176.3485563,p,0.747404,176.2990846,None,,,,,,,,,,,,,,,,,,,8101003551,r,r,25,3,2022-03-10_11h43.42.757,HW1_Rostami_810100355,2022.1.1,60.04790623,r
20.bmp,"(0, -6.11)","(5.24, 5.24)",0,0,0,0,0,33,33,37,,,,,,,,,,,,,,,177.0647056,None,177.5643858,177.6140956,p,0.7422229,177.5643858,None,,,,,,,,,,,,,,,,,,,8101003551,r,r,25,3,2022-03-10_11h43.42.757,HW1_Rostami_810100355,2022.1.1,60.04790623,r
50.bmp,"(5.25, 3.05)","(5.24, 5.24)",0,0,0,0,0,34,34,72,,,,,,,,,,,,,,,178.330094,None,178.829814,178.8796271,p,3.2331767,178.829814,None,,,,,,,,,,,,,,,,,,,8101003551,r,r,25,3,2022-03-10_11h43.42.757,HW1_Rostami_810100355,2022.1.1,60.04790623,r
70.bmp,"(0, -6.11)","(5.24, 5.24)",0,0,0,0,0,35,35,102,,,,,,,,,,,,,,,182.0933027,None,182.5936488,182.6432844,p,0.9342755,182.5936488,None,,,,,,,,,,,,,,,,,,,8101003551,r,r,25,3,2022-03-10_11h43.42.757,HW1_Rostami_810100355,2022.1.1,60.04790623,r
20.bmp,"(1.74, 3)","(3.49, 3.49)",0,0,0,0,0,36,36,28,,,,,,,,,,,,,,,183.5591804,None,184.0586986,184.1087,p,0.7620072,184.0586986,None,,,,,,,,,,,,,,,,,,,8101003551,r,r,25,3,2022-03-10_11h43.42.757,HW1_Rostami_810100355,2022.1.1,60.04790623,r
80.bmp,"(0, 6.11)","(5.24, 5.24)",0,0,0,0,0,37,37,112,,,,,,,,,,,,,,,184.8412149,None,185.341024,185.3906074,p,0.9009728,185.341024,None,,,,,,,,,,,,,,,,,,,8101003551,r,r,25,3,2022-03-10_11h43.42.757,HW1_Rostami_810100355,2022.1.1,60.04790623,r
10.bmp,"(-5.25, -3.05)","(5.24, 5.24)",0,0,0,0,0,38,38,23,,,,,,,,,,,,,,,186.2734365,None,186.7728515,186.8227218,p,1.9443886,186.7728515,None,,,,,,,,,,,,,,,,,,,8101003551,r,r,25,3,2022-03-10_11h43.42.757,HW1_Rostami_810100355,2022.1.1,60.04790623,r
20.bmp,"(0, 6.11)","(5.24, 5.24)",0,0,0,0,0,39,39,34,,,,,,,,,,,,,,,188.7377289,None,189.2376205,189.2871681,p,0.9081597,189.2376205,None,,,,,,,,,,,,,,,,,,,8101003551,r,r,25,3,2022-03-10_11h43.42.757,HW1_Rostami_810100355,2022.1.1,60.04790623,r
20.bmp,"(-1.74, -3)","(3.49, 3.49)",0,0,0,0,0,40,40,31,,,,,,,,,,,,,,,190.1700354,None,190.6697397,190.7196115,p,0.7123002,190.6697397,None,,,,,,,,,,,,,,,,,,,8101003551,r,r,25,3,2022-03-10_11h43.42.757,HW1_Rostami_810100355,2022.1.1,60.04790623,r
20.bmp,"(1.74, -3)","(3.49, 3.49)",0,0,0,0,0,41,41,32,,,,,,,,,,,,,,,191.4020031,None,191.9017354,191.9513845,p,1.2662597,191.9017354,None,,,,,,,,,,,,,,,,,,,8101003551,r,r,25,3,2022-03-10_11h43.42.757,HW1_Rostami_810100355,2022.1.1,60.04790623,r
10.bmp,"(0, -6.11)","(5.24, 5.24)",0,0,0,0,0,42,42,24,,,,,,,,,,,,,,,193.2005663,None,193.7002946,193.7502703,p,0.9559144,193.7002946,None,,,,,,,,,,,,,,,,,,,8101003551,r,r,25,3,2022-03-10_11h43.42.757,HW1_Rostami_810100355,2022.1.1,60.04790623,r
70.bmp,"(1.74, 3)","(3.49, 3.49)",0,0,0,0,0,43,43,93,,,,,,,,,,,,,,,194.6827329,None,195.1822818,195.2320748,p,1.7565555,195.1822818,None,,,,,,,,,,,,,,,,,,,8101003551,r,r,25,3,2022-03-10_11h43.42.757,HW1_Rostami_810100355,2022.1.1,60.04790623,r
80.bmp,"(-1.74, 3)","(3.49, 3.49)",0,0,0,0,0,44,44,107,,,,,,,,,,,,,,,196.9641644,None,197.4635968,197.513274,p,1.1669246,197.4635968,None,,,,,,,,,,,,,,,,,,,8101003551,r,r,25,3,2022-03-10_11h43.42.757,HW1_Rostami_810100355,2022.1.1,60.04790623,r
70.bmp,"(0, 6.11)","(5.24, 5.24)",0,0,0,0,0,45,45,99,,,,,,,,,,,,,,,198.6625419,None,199.1620699,199.2117711,p,0.9587933,199.1620699,None,,,,,,,,,,,,,,,,,,,8101003551,r,r,25,3,2022-03-10_11h43.42.757,HW1_Rostami_810100355,2022.1.1,60.04790623,r
50.bmp,"(0, 0)","(2.18, 2.18)",0,0,0,0,0,46,46,65,,,,,,,,,,,,,,,200.144284,None,200.6439874,200.6937922,p,0.6670173,200.6439874,None,,,,,,,,,,,,,,,,,,,8101003551,r,r,25,3,2022-03-10_11h43.42.757,HW1_Rostami_810100355,2022.1.1,60.04790623,r
50.bmp,"(0, -6.11)","(5.24, 5.24)",0,0,0,0,0,47,47,76,,,,,,,,,,,,,,,201.3433384,None,201.843338,201.8928229,p,1.3292237,201.843338,None,,,,,,,,,,,,,,,,,,,8101003551,r,r,25,3,2022-03-10_11h43.42.757,HW1_Rostami_810100355,2022.1.1,60.04790623,r
40.bmp,"(0, 6.11)","(5.24, 5.24)",0,0,0,0,0,48,48,60,,,,,,,,,,,,,,,203.1920808,None,203.6918346,203.7410129,p,1.087523,203.6918346,None,,,,,,,,,,,,,,,,,,,8101003551,r,r,25,3,2022-03-10_11h43.42.757,HW1_Rostami_810100355,2022.1.1,60.04790623,r
40.bmp,"(-5.25, 3.05)","(5.24, 5.24)",0,0,0,0,0,49,49,61,,,,,,,,,,,,,,,204.8068037,None,205.3070536,205.3565461,p,0.9369463,205.3070536,None,,,,,,,,,,,,,,,,,,,8101003551,r,r,25,3,2022-03-10_11h43.42.757,HW1_Rostami_810100355,2022.1.1,60.04790623,r
10.bmp,"(-1.74, 3)","(3.49, 3.49)",0,0,0,0,0,50,50,16,,,,,,,,,,,,,,,206.2726518,None,206.7721558,206.821786,o,0.5772244,206.7721558,None,,,,,,,,,,,,,,,,,,,8101003551,r,r,25,3,2022-03-10_11h43.42.757,HW1_Rostami_810100355,2022.1.1,60.04790623,r
80.bmp,"(5.25, -3.05)","(5.24, 5.24)",0,0,0,0,0,51,51,116,,,,,,,,,,,,,,,207.3716979,None,207.8710211,207.9210538,p,0.7986573,207.8710211,None,,,,,,,,,,,,,,,,,,,8101003551,r,r,25,3,2022-03-10_11h43.42.757,HW1_Rostami_810100355,2022.1.1,60.04790623,r
80.bmp,"(-1.74, -3)","(3.49, 3.49)",0,0,0,0,0,52,52,109,,,,,,,,,,,,,,,208.687106,None,209.1865862,209.2364626,p,2.2981142,209.1865862,None,,,,,,,,,,,,,,,,,,,8101003551,r,r,25,3,2022-03-10_11h43.42.757,HW1_Rostami_810100355,2022.1.1,60.04790623,r
80.bmp,"(0, -6.11)","(5.24, 5.24)",0,0,0,0,0,53,53,115,,,,,,,,,,,,,,,211.5011096,None,212.0006826,212.0505062,p,0.630892,212.0006826,None,,,,,,,,,,,,,,,,,,,8101003551,r,r,25,3,2022-03-10_11h43.42.757,HW1_Rostami_810100355,2022.1.1,60.04790623,r
40.bmp,"(-1.74, -3)","(3.49, 3.49)",0,0,0,0,0,54,54,57,,,,,,,,,,,,,,,212.6503423,None,213.1500126,213.1998208,p,1.3589387,213.1500126,None,,,,,,,,,,,,,,,,,,,8101003551,r,r,25,3,2022-03-10_11h43.42.757,HW1_Rostami_810100355,2022.1.1,60.04790623,r
80.bmp,"(3.49, 0)","(3.49, 3.49)",0,0,0,0,0,55,55,105,,,,,,,,,,,,,,,214.5321705,None,215.0318022,215.081617,p,1.2964866,215.0318022,None,,,,,,,,,,,,,,,,,,,8101003551,r,r,25,3,2022-03-10_11h43.42.757,HW1_Rostami_810100355,2022.1.1,60.04790623,r
60.bmp,"(5.25, 3.05)","(5.24, 5.24)",0,0,0,0,0,56,56,85,,,,,,,,,,,,,,,216.3471673,None,216.8467243,216.8965364,p,0.7089095,216.8467243,None,,,,,,,,,,,,,,,,,,,8101003551,r,r,25,3,2022-03-10_11h43.42.757,HW1_Rostami_810100355,2022.1.1,60.04790623,r
80.bmp,"(5.25, 3.05)","(5.24, 5.24)",0,0,0,0,0,57,57,111,,,,,,,,,,,,,,,217.5793123,None,218.0790862,218.1290507,p,1.9284209,218.0790862,None,,,,,,,,,,,,,,,,,,,8101003551,r,r,25,3,2022-03-10_11h43.42.757,HW1_Rostami_810100355,2022.1.1,60.04790623,r
80.bmp,"(0, 0)","(2.18, 2.18)",0,0,0,0,0,58,58,104,,,,,,,,,,,,,,,220.0268828,None,220.5270455,220.5765556,p,1.1289783,220.5270455,None,,,,,,,,,,,,,,,,,,,8101003551,r,r,25,3,2022-03-10_11h43.42.757,HW1_Rostami_810100355,2022.1.1,60.04790623,r
10.bmp,"(0, 0)","(2.18, 2.18)",0,0,0,0,0,59,59,13,,,,,,,,,,,,,,,221.67552,None,222.1751426,222.2249305,p,0.7421038,222.1751426,None,,,,,,,,,,,,,,,,,,,8101003551,r,r,25,3,2022-03-10_11h43.42.757,HW1_Rostami_810100355,2022.1.1,60.04790623,r
40.bmp,"(3.49, 0)","(3.49, 3.49)",0,0,0,0,0,60,60,53,,,,,,,,,,,,,,,222.9413518,None,223.4413292,223.4908278,p,2.1419645,223.4413292,None,,,,,,,,,,,,,,,,,,,8101003551,r,r,25,3,2022-03-10_11h43.42.757,HW1_Rostami_810100355,2022.1.1,60.04790623,r
40.bmp,"(-3.49, 0)","(3.49, 3.49)",0,0,0,0,0,61,61,56,,,,,,,,,,,,,,,225.6054737,None,226.1053565,226.1551616,p,1.3379183,226.1053565,None,,,,,,,,,,,,,,,,,,,8101003551,r,r,25,3,2022-03-10_11h43.42.757,HW1_Rostami_810100355,2022.1.1,60.04790623,r
0.bmp,"(-1.74, -3)","(3.49, 3.49)",0,0,0,0,0,62,62,5,,,,,,,,,,,,,,,227.4705266,None,227.9704313,228.0202675,p,1.6845211,227.9704313,None,,,,,,,,,,,,,,,,,,,8101003551,r,r,25,3,2022-03-10_11h43.42.757,HW1_Rostami_810100355,2022.1.1,60.04790623,r
60.bmp,"(0, -6.11)","(5.24, 5.24)",0,0,0,0,0,63,63,89,,,,,,,,,,,,,,,229.685361,None,230.1850007,230.2348479,p,3.598819,230.1850007,None,,,,,,,,,,,,,,,,,,,8101003551,r,r,25,3,2022-03-10_11h43.42.757,HW1_Rostami_810100355,2022.1.1,60.04790623,r
50.bmp,"(0, 6.11)","(5.24, 5.24)",0,0,0,0,0,64,64,73,,,,,,,,,,,,,,,233.814952,None,234.3147138,234.3647537,p,0.810378,234.3147138,None,,,,,,,,,,,,,,,,,,,8101003551,r,r,25,3,2022-03-10_11h43.42.757,HW1_Rostami_810100355,2022.1.1,60.04790623,r
70.bmp,"(1.74, -3)","(3.49, 3.49)",0,0,0,0,0,65,65,97,,,,,,,,,,,,,,,235.1471839,None,235.6470793,235.6970859,p,3.6469867,235.6470793,None,,,,,,,,,,,,,,,,,,,8101003551,r,r,25,3,2022-03-10_11h43.42.757,HW1_Rostami_810100355,2022.1.1,60.04790623,r
60.bmp,"(-1.74, 3)","(3.49, 3.49)",0,0,0,0,0,66,66,81,,,,,,,,,,,,,,,239.3103786,None,239.8101966,239.8601676,p,0.7534276,239.8101966,None,,,,,,,,,,,,,,,,,,,8101003551,r,r,25,3,2022-03-10_11h43.42.757,HW1_Rostami_810100355,2022.1.1,60.04790623,r
80.bmp,"(1.74, 3)","(3.49, 3.49)",0,0,0,0,0,67,67,106,,,,,,,,,,,,,,,240.5925325,None,241.092367,241.1421839,p,0.6161286,241.092367,None,,,,,,,,,,,,,,,,,,,8101003551,r,r,25,3,2022-03-10_11h43.42.757,HW1_Rostami_810100355,2022.1.1,60.04790623,r
10.bmp,"(-3.49, 0)","(3.49, 3.49)",0,0,0,0,0,68,68,17,,,,,,,,,,,,,,,241.7248564,None,242.2243087,242.2741571,p,0.8025527,242.2243087,None,,,,,,,,,,,,,,,,,,,8101003551,r,r,25,3,2022-03-10_11h43.42.757,HW1_Rostami_810100355,2022.1.1,60.04790623,r
30.bmp,"(5.25, 3.05)","(5.24, 5.24)",0,0,0,0,0,69,69,46,,,,,,,,,,,,,,,243.0573254,None,243.557165,243.6067519,p,0.5485473,243.557165,None,,,,,,,,,,,,,,,,,,,8101003551,r,r,25,3,2022-03-10_11h43.42.757,HW1_Rostami_810100355,2022.1.1,60.04790623,r
20.bmp,"(3.49, 0)","(3.49, 3.49)",0,0,0,0,0,70,70,27,,,,,,,,,,,,,,,244.1226494,None,244.6227482,244.6726955,p,0.8518195,244.6227482,None,,,,,,,,,,,,,,,,,,,8101003551,r,r,25,3,2022-03-10_11h43.42.757,HW1_Rostami_810100355,2022.1.1,60.04790623,r
80.bmp,"(-5.25, -3.05)","(5.24, 5.24)",0,0,0,0,0,71,71,114,,,,,,,,,,,,,,,245.5051522,None,246.0045669,246.0544487,p,2.8080514,246.0045669,None,,,,,,,,,,,,,,,,,,,8101003551,r,r,25,3,2022-03-10_11h43.42.757,HW1_Rostami_810100355,2022.1.1,60.04790623,r
30.bmp,"(0, 6.11)","(5.24, 5.24)",0,0,0,0,0,72,72,47,,,,,,,,,,,,,,,248.8352506,None,249.3351438,249.3850644,p,1.0869865,249.3351438,None,,,,,,,,,,,,,,,,,,,8101003551,r,r,25,3,2022-03-10_11h43.42.757,HW1_Rostami_810100355,2022.1.1,60.04790623,r
0.bmp,"(-1.74, 3)","(3.49, 3.49)",0,0,0,0,0,73,73,3,,,,,,,,,,,,,,,250.4505996,None,250.9502718,251.000099,p,1.4629691,250.9502718,None,,,,,,,,,,,,,,,,,,,8101003551,r,r,25,3,2022-03-10_11h43.42.757,HW1_Rostami_810100355,2022.1.1,60.04790623,r
30.bmp,"(0, 0)","(2.18, 2.18)",0,0,0,0,0,74,74,39,,,,,,,,,,,,,,,252.4319891,None,252.9320559,252.9820717,p,0.7890548,252.9320559,None,,,,,,,,,,,,,,,,,,,8101003551,r,r,25,3,2022-03-10_11h43.42.757,HW1_Rostami_810100355,2022.1.1,60.04790623,r
30.bmp,"(0, -6.11)","(5.24, 5.24)",0,0,0,0,0,75,75,50,,,,,,,,,,,,,,,253.7479223,None,254.2474279,254.2974268,p,0.5778632,254.2474279,None,,,,,,,,,,,,,,,,,,,8101003551,r,r,25,3,2022-03-10_11h43.42.757,HW1_Rostami_810100355,2022.1.1,60.04790623,r
0.bmp,"(-5.25, 3.05)","(5.24, 5.24)",0,0,0,0,0,76,76,9,,,,,,,,,,,,,,,254.8469099,None,255.3463519,255.3963039,p,0.4256195,255.3463519,None,,,,,,,,,,,,,,,,,,,8101003551,r,r,25,3,2022-03-10_11h43.42.757,HW1_Rostami_810100355,2022.1.1,60.04790623,r
20.bmp,"(-1.74, 3)","(3.49, 3.49)",0,0,0,0,0,77,77,29,,,,,,,,,,,,,,,255.7958091,None,256.2954734,256.3452917,p,0.4770015,256.2954734,None,,,,,,,,,,,,,,,,,,,8101003551,r,r,25,3,2022-03-10_11h43.42.757,HW1_Rostami_810100355,2022.1.1,60.04790623,r
0.bmp,"(3.49, 0)","(3.49, 3.49)",0,0,0,0,0,78,78,1,,,,,,,,,,,,,,,256.794939,None,257.2946116,257.3445118,p,0.5729968,257.2946116,None,,,,,,,,,,,,,,,,,,,8101003551,r,r,25,3,2022-03-10_11h43.42.757,HW1_Rostami_810100355,2022.1.1,60.04790623,r
10.bmp,"(5.25, 3.05)","(5.24, 5.24)",0,0,0,0,0,79,79,20,,,,,,,,,,,,,,,257.8940588,None,258.3937803,258.4436817,p,0.7334187,258.3937803,None,,,,,,,,,,,,,,,,,,,8101003551,r,r,25,3,2022-03-10_11h43.42.757,HW1_Rostami_810100355,2022.1.1,60.04790623,r
30.bmp,"(1.74, -3)","(3.49, 3.49)",0,0,0,0,0,80,80,45,,,,,,,,,,,,,,,259.1597749,None,259.6593773,259.7093363,p,0.6476181,259.6593773,None,,,,,,,,,,,,,,,,,,,8101003551,r,r,25,3,2022-03-10_11h43.42.757,HW1_Rostami_810100355,2022.1.1,60.04790623,r
50.bmp,"(3.49, 0)","(3.49, 3.49)",0,0,0,0,0,81,81,66,,,,,,,,,,,,,,,260.3251681,None,260.8250201,260.8748475,p,0.7336976,260.8250201,None,,,,,,,,,,,,,,,,,,,8101003551,r,r,25,3,2022-03-10_11h43.42.757,HW1_Rostami_810100355,2022.1.1,60.04790623,r
70.bmp,"(-5.25, -3.05)","(5.24, 5.24)",0,0,0,0,0,82,82,101,,,,,,,,,,,,,,,261.5908319,None,262.0903466,262.1401766,p,0.6131928,262.0903466,None,,,,,,,,,,,,,,,,,,,8101003551,r,r,25,3,2022-03-10_11h43.42.757,HW1_Rostami_810100355,2022.1.1,60.04790623,r
0.bmp,"(1.74, -3)","(3.49, 3.49)",0,0,0,0,0,83,83,6,,,,,,,,,,,,,,,262.723219,None,263.2229728,263.2728457,p,0.5781998,263.2229728,None,,,,,,,,,,,,,,,,,,,8101003551,r,r,25,3,2022-03-10_11h43.42.757,HW1_Rostami_810100355,2022.1.1,60.04790623,r
10.bmp,"(1.74, -3)","(3.49, 3.49)",0,0,0,0,0,84,84,19,,,,,,,,,,,,,,,263.8222648,None,264.3220662,264.3716829,p,3.6363083,264.3220662,None,,,,,,,,,,,,,,,,,,,8101003551,r,r,25,3,2022-03-10_11h43.42.757,HW1_Rostami_810100355,2022.1.1,60.04790623,r
10.bmp,"(5.25, -3.05)","(5.24, 5.24)",0,0,0,0,0,85,85,25,,,,,,,,,,,,,,,267.9854896,None,268.4850906,268.5352688,p,1.2559071,268.4850906,None,,,,,,,,,,,,,,,,,,,8101003551,r,r,25,3,2022-03-10_11h43.42.757,HW1_Rostami_810100355,2022.1.1,60.04790623,r
20.bmp,"(5.25, -3.05)","(5.24, 5.24)",0,0,0,0,0,86,86,38,,,,,,,,,,,,,,,269.7675695,None,270.2672003,270.3166657,p,0.5139576,270.2672003,None,,,,,,,,,,,,,,,,,,,8101003551,r,r,25,3,2022-03-10_11h43.42.757,HW1_Rostami_810100355,2022.1.1,60.04790623,r
70.bmp,"(5.25, -3.05)","(5.24, 5.24)",0,0,0,0,0,87,87,103,,,,,,,,,,,,,,,270.7996542,None,271.2991687,271.3493907,p,0.6473272,271.2991687,None,,,,,,,,,,,,,,,,,,,8101003551,r,r,25,3,2022-03-10_11h43.42.757,HW1_Rostami_810100355,2022.1.1,60.04790623,r
60.bmp,"(-5.25, 3.05)","(5.24, 5.24)",0,0,0,0,0,88,88,87,,,,,,,,,,,,,,,271.965029,None,272.4646409,272.5146994,p,0.654053,272.4646409,None,,,,,,,,,,,,,,,,,,,8101003551,r,r,25,3,2022-03-10_11h43.42.757,HW1_Rostami_810100355,2022.1.1,60.04790623,r
30.bmp,"(-5.25, -3.05)","(5.24, 5.24)",0,0,0,0,0,89,89,49,,,,,,,,,,,,,,,273.1475338,None,273.6474761,273.6970559,p,0.6041851,273.6474761,None,,,,,,,,,,,,,,,,,,,8101003551,r,r,25,3,2022-03-10_11h43.42.757,HW1_Rostami_810100355,2022.1.1,60.04790623,r
50.bmp,"(-5.25, 3.05)","(5.24, 5.24)",0,0,0,0,0,90,90,74,,,,,,,,,,,,,,,274.2801549,None,274.779943,274.8295446,p,0.9230725,274.779943,None,,,,,,,,,,,,,,,,,,,8101003551,r,r,25,3,2022-03-10_11h43.42.757,HW1_Rostami_810100355,2022.1.1,60.04790623,r
10.bmp,"(1.74, 3)","(3.49, 3.49)",0,0,0,0,0,91,91,15,,,,,,,,,,,,,,,275.7285564,None,276.2282138,276.2780432,p,0.6226776,276.2282138,None,,,,,,,,,,,,,,,,,,,8101003551,r,r,25,3,2022-03-10_11h43.42.757,HW1_Rostami_810100355,2022.1.1,60.04790623,r
30.bmp,"(-5.25, 3.05)","(5.24, 5.24)",0,0,0,0,0,92,92,48,,,,,,,,,,,,,,,276.8778478,None,277.3772854,277.4275003,p,0.8500215,277.3772854,None,,,,,,,,,,,,,,,,,,,8101003551,r,r,25,3,2022-03-10_11h43.42.757,HW1_Rostami_810100355,2022.1.1,60.04790623,r
20.bmp,"(-5.25, 3.05)","(5.24, 5.24)",0,0,0,0,0,93,93,35,,,,,,,,,,,,,,,278.2600037,None,278.7594644,278.8096929,p,0.7185209,278.7594644,None,,,,,,,,,,,,,,,,,,,8101003551,r,r,25,3,2022-03-10_11h43.42.757,HW1_Rostami_810100355,2022.1.1,60.04790623,r
30.bmp,"(3.49, 0)","(3.49, 3.49)",0,0,0,0,0,94,94,40,,,,,,,,,,,,,,,279.5089007,None,280.0084906,280.058581,p,1.0848462,280.0084906,None,,,,,,,,,,,,,,,,,,,8101003551,r,r,25,3,2022-03-10_11h43.42.757,HW1_Rostami_810100355,2022.1.1,60.04790623,r
50.bmp,"(5.25, -3.05)","(5.24, 5.24)",0,0,0,0,0,95,95,77,,,,,,,,,,,,,,,281.1239313,None,281.6238561,281.6737154,p,0.4586304,281.6238561,None,,,,,,,,,,,,,,,,,,,8101003551,r,r,25,3,2022-03-10_11h43.42.757,HW1_Rostami_810100355,2022.1.1,60.04790623,r
30.bmp,"(1.74, 3)","(3.49, 3.49)",0,0,0,0,0,96,96,41,,,,,,,,,,,,,,,282.1061243,None,282.6062359,282.656221,p,0.6137274,282.6062359,None,,,,,,,,,,,,,,,,,,,8101003551,r,r,25,3,2022-03-10_11h43.42.757,HW1_Rostami_810100355,2022.1.1,60.04790623,r
60.bmp,"(0, 6.11)","(5.24, 5.24)",0,0,0,0,0,97,97,86,,,,,,,,,,,,,,,283.2387296,None,283.7387752,283.7883146,p,0.6082713,283.7387752,None,,,,,,,,,,,,,,,,,,,8101003551,r,r,25,3,2022-03-10_11h43.42.757,HW1_Rostami_810100355,2022.1.1,60.04790623,r
50.bmp,"(1.74, -3)","(3.49, 3.49)",0,0,0,0,0,98,98,71,,,,,,,,,,,,,,,284.3713459,None,284.8708644,284.9208172,p,0.616634,284.8708644,None,,,,,,,,,,,,,,,,,,,8101003551,r,r,25,3,2022-03-10_11h43.42.757,HW1_Rostami_810100355,2022.1.1,60.04790623,r
60.bmp,"(-3.49, 0)","(3.49, 3.49)",0,0,0,0,0,99,99,82,,,,,,,,,,,,,,,285.52027,None,286.0198181,286.0698023,p,0.6496471,286.0198181,None,,,,,,,,,,,,,,,,,,,8101003551,r,r,25,3,2022-03-10_11h43.42.757,HW1_Rostami_810100355,2022.1.1,60.04790623,r
20.bmp,"(0, 0)","(2.18, 2.18)",0,0,0,0,0,100,100,26,,,,,,,,,,,,,,,286.6858642,None,287.1854145,287.2352947,p,0.8316629,287.1854145,None,,,,,,,,,,,,,,,,,,,8101003551,r,r,25,3,2022-03-10_11h43.42.757,HW1_Rostami_810100355,2022.1.1,60.04790623,r
0.bmp,"(0, 0)","(2.18, 2.18)",0,0,0,0,0,101,101,0,,,,,,,,,,,,,,,288.0346188,None,288.5342702,288.5840983,p,0.6291099,288.5342702,None,,,,,,,,,,,,,,,,,,,8101003551,r,r,25,3,2022-03-10_11h43.42.757,HW1_Rostami_810100355,2022.1.1,60.04790623,r
70.bmp,"(-1.74, -3)","(3.49, 3.49)",0,0,0,0,0,102,102,96,,,,,,,,,,,,,,,289.1839436,None,289.6832523,289.7332034,p,0.6065322,289.6832523,None,,,,,,,,,,,,,,,,,,,8101003551,r,r,25,3,2022-03-10_11h43.42.757,HW1_Rostami_810100355,2022.1.1,60.04790623,r
80.bmp,"(1.74, -3)","(3.49, 3.49)",0,0,0,0,0,103,103,110,,,,,,,,,,,,,,,290.3161197,None,290.8157058,290.8654992,p,0.5370166,290.8157058,None,,,,,,,,,,,,,,,,,,,8101003551,r,r,25,3,2022-03-10_11h43.42.757,HW1_Rostami_810100355,2022.1.1,60.04790623,r
0.bmp,"(0, 6.11)","(5.24, 5.24)",0,0,0,0,0,104,104,8,,,,,,,,,,,,,,,291.3817028,None,291.881346,291.931213,p,0.4693875,291.881346,None,,,,,,,,,,,,,,,,,,,8101003551,r,r,25,3,2022-03-10_11h43.42.757,HW1_Rostami_810100355,2022.1.1,60.04790623,r
0.bmp,"(5.25, 3.05)","(5.24, 5.24)",0,0,0,0,0,105,105,7,,,,,,,,,,,,,,,292.3807691,None,292.8804418,292.9306424,p,0.5999037,292.8804418,None,,,,,,,,,,,,,,,,,,,8101003551,r,r,25,3,2022-03-10_11h43.42.757,HW1_Rostami_810100355,2022.1.1,60.04790623,r
50.bmp,"(1.74, 3)","(3.49, 3.49)",0,0,0,0,0,106,106,67,,,,,,,,,,,,,,,293.5135458,None,294.0130536,294.062686,p,0.4601785,294.0130536,None,,,,,,,,,,,,,,,,,,,8101003551,r,r,25,3,2022-03-10_11h43.42.757,HW1_Rostami_810100355,2022.1.1,60.04790623,r
40.bmp,"(0, -6.11)","(5.24, 5.24)",0,0,0,0,0,107,107,63,,,,,,,,,,,,,,,294.4956797,None,294.9952836,295.0452393,p,0.8183363,294.9952836,None,,,,,,,,,,,,,,,,,,,8101003551,r,r,25,3,2022-03-10_11h43.42.757,HW1_Rostami_810100355,2022.1.1,60.04790623,r
30.bmp,"(-1.74, -3)","(3.49, 3.49)",0,0,0,0,0,108,108,44,,,,,,,,,,,,,,,295.8446718,None,296.3440859,296.3939388,p,0.8052917,296.3440859,None,,,,,,,,,,,,,,,,,,,8101003551,r,r,25,3,2022-03-10_11h43.42.757,HW1_Rostami_810100355,2022.1.1,60.04790623,r
50.bmp,"(-5.25, -3.05)","(5.24, 5.24)",0,0,0,0,0,109,109,75,,,,,,,,,,,,,,,297.1766352,None,297.6763443,297.7261599,p,1.7952353,297.6763443,None,,,,,,,,,,,,,,,,,,,8101003551,r,r,25,3,2022-03-10_11h43.42.757,HW1_Rostami_810100355,2022.1.1,60.04790623,r
70.bmp,"(0, 0)","(2.18, 2.18)",0,0,0,0,0,110,110,91,,,,,,,,,,,,,,,299.4912514,None,299.99074,300.0405461,p,1.053706,299.99074,None,,,,,,,,,,,,,,,,,,,8101003551,r,r,25,3,2022-03-10_11h43.42.757,HW1_Rostami_810100355,2022.1.1,60.04790623,r
60.bmp,"(1.74, -3)","(3.49, 3.49)",0,0,0,0,0,111,111,84,,,,,,,,,,,,,,,301.0730442,None,301.573,301.6231265,p,1.2748146,301.573,None,,,,,,,,,,,,,,,,,,,8101003551,r,r,25,3,2022-03-10_11h43.42.757,HW1_Rostami_810100355,2022.1.1,60.04790623,r
50.bmp,"(-1.74, 3)","(3.49, 3.49)",0,0,0,0,0,112,112,68,,,,,,,,,,,,,,,302.871656,None,303.3712567,303.4210992,p,0.7438391,303.3712567,None,,,,,,,,,,,,,,,,,,,8101003551,r,r,25,3,2022-03-10_11h43.42.757,HW1_Rostami_810100355,2022.1.1,60.04790623,r
30.bmp,"(5.25, -3.05)","(5.24, 5.24)",0,0,0,0,0,113,113,51,,,,,,,,,,,,,,,304.1372522,None,304.637331,304.6869215,p,0.5948447,304.637331,None,,,,,,,,,,,,,,,,,,,8101003551,r,r,25,3,2022-03-10_11h43.42.757,HW1_Rostami_810100355,2022.1.1,60.04790623,r
0.bmp,"(1.74, 3)","(3.49, 3.49)",0,0,0,0,0,114,114,2,,,,,,,,,,,,,,,305.2530072,None,305.7527197,305.8025979,p,0.4302937,305.7527197,None,,,,,,,,,,,,,,,,,,,8101003551,r,r,25,3,2022-03-10_11h43.42.757,HW1_Rostami_810100355,2022.1.1,60.04790623,r
0.bmp,"(-3.49, 0)","(3.49, 3.49)",0,0,0,0,0,115,115,4,,,,,,,,,,,,,,,306.202489,None,306.7016432,306.7516018,p,0.664471,306.7016432,None,,,,,,,,,,,,,,,,,,,8101003551,r,r,25,3,2022-03-10_11h43.42.757,HW1_Rostami_810100355,2022.1.1,60.04790623,r
10.bmp,"(3.49, 0)","(3.49, 3.49)",0,0,0,0,0,116,116,14,,,,,,,,,,,,,,,307.3842794,None,307.8841114,307.9339152,p,0.4708569,307.8841114,None,,,,,,,,,,,,,,,,,,,8101003551,r,r,25,3,2022-03-10_11h43.42.757,HW1_Rostami_810100355,2022.1.1,60.04790623,r
70.bmp,"(0, 6.11)","(5.24, 5.24)",0,0,0,0,1,0,117,99,,,,,,,,,,,,,,,308.3834501,None,308.8832203,308.9330648,p,0.6686837,308.8832203,None,,,,,,,,,,,,,,,,,,,8101003551,r,r,25,3,2022-03-10_11h43.42.757,HW1_Rostami_810100355,2022.1.1,60.04790623,r
80.bmp,"(0, -6.11)","(5.24, 5.24)",0,0,0,0,1,1,118,115,,,,,,,,,,,,,,,309.5824437,None,310.0822429,310.1319278,p,0.5734392,310.0822429,None,,,,,,,,,,,,,,,,,,,8101003551,r,r,25,3,2022-03-10_11h43.42.757,HW1_Rostami_810100355,2022.1.1,60.04790623,r
60.bmp,"(0, 0)","(2.18, 2.18)",0,0,0,0,1,2,119,78,,,,,,,,,,,,,,,310.6815316,None,311.1812282,311.2312004,p,1.1256656,311.1812282,None,,,,,,,,,,,,,,,,,,,8101003551,r,r,25,3,2022-03-10_11h43.42.757,HW1_Rostami_810100355,2022.1.1,60.04790623,r
40.bmp,"(-3.49, 0)","(3.49, 3.49)",0,0,0,0,1,3,120,56,,,,,,,,,,,,,,,312.329823,None,312.8298762,312.8797401,p,0.7899777,312.8298762,None,,,,,,,,,,,,,,,,,,,8101003551,r,r,25,3,2022-03-10_11h43.42.757,HW1_Rostami_810100355,2022.1.1,60.04790623,r
40.bmp,"(-5.25, -3.05)","(5.24, 5.24)",0,0,0,0,1,4,121,62,,,,,,,,,,,,,,,313.6455796,None,314.1455347,314.1953189,p,0.5365164,314.1455347,None,,,,,,,,,,,,,,,,,,,8101003551,r,r,25,3,2022-03-10_11h43.42.757,HW1_Rostami_810100355,2022.1.1,60.04790623,r
30.bmp,"(0, 0)","(2.18, 2.18)",0,0,0,0,1,5,122,39,,,,,,,,,,,,,,,314.7115611,None,315.2112317,315.261043,p,0.5199146,315.2112317,None,,,,,,,,,,,,,,,,,,,8101003551,r,r,25,3,2022-03-10_11h43.42.757,HW1_Rostami_810100355,2022.1.1,60.04790623,r
0.bmp,"(0, -6.11)","(5.24, 5.24)",0,0,0,0,1,6,123,11,,,,,,,,,,,,,,,315.7606766,None,316.2604205,316.3099907,p,0.5798932,316.2604205,None,,,,,,,,,,,,,,,,,,,8101003551,r,r,25,3,2022-03-10_11h43.42.757,HW1_Rostami_810100355,2022.1.1,60.04790623,r
30.bmp,"(-5.25, -3.05)","(5.24, 5.24)",0,0,0,0,1,7,124,49,,,,,,,,,,,,,,,316.8596041,None,317.3592139,317.4091475,p,0.5199301,317.3592139,None,,,,,,,,,,,,,,,,,,,8101003551,r,r,25,3,2022-03-10_11h43.42.757,HW1_Rostami_810100355,2022.1.1,60.04790623,r
50.bmp,"(1.74, 3)","(3.49, 3.49)",0,0,0,0,1,8,125,67,,,,,,,,,,,,,,,317.9087179,None,318.4082151,318.458011,p,0.5474984,318.4082151,None,,,,,,,,,,,,,,,,,,,8101003551,r,r,25,3,2022-03-10_11h43.42.757,HW1_Rostami_810100355,2022.1.1,60.04790623,r
50.bmp,"(3.49, 0)","(3.49, 3.49)",0,0,0,0,1,9,126,66,,,,,,,,,,,,,,,318.9742384,None,319.4741834,319.5237889,p,0.5152491,319.4741834,None,,,,,,,,,,,,,,,,,,,8101003551,r,r,25,3,2022-03-10_11h43.42.757,HW1_Rostami_810100355,2022.1.1,60.04790623,r
60.bmp,"(-5.25, -3.05)","(5.24, 5.24)",0,0,0,0,1,10,127,88,,,,,,,,,,,,,,,320.0069849,None,320.5066714,320.5565106,p,0.4793154,320.5066714,None,,,,,,,,,,,,,,,,,,,8101003551,r,r,25,3,2022-03-10_11h43.42.757,HW1_Rostami_810100355,2022.1.1,60.04790623,r
60.bmp,"(-3.49, 0)","(3.49, 3.49)",0,0,0,0,1,11,128,82,,,,,,,,,,,,,,,321.0059609,None,321.5053788,321.5555661,p,0.6135529,321.5053788,None,,,,,,,,,,,,,,,,,,,8101003551,r,r,25,3,2022-03-10_11h43.42.757,HW1_Rostami_810100355,2022.1.1,60.04790623,r
80.bmp,"(3.49, 0)","(3.49, 3.49)",0,0,0,0,1,12,129,105,,,,,,,,,,,,,,,322.1379423,None,322.6381114,322.6880331,p,0.7659042,322.6381114,None,,,,,,,,,,,,,,,,,,,8101003551,r,r,25,3,2022-03-10_11h43.42.757,HW1_Rostami_810100355,2022.1.1,60.04790623,r
60.bmp,"(-1.74, -3)","(3.49, 3.49)",0,0,0,0,1,13,130,83,,,,,,,,,,,,,,,323.4203943,None,323.9199198,323.9697734,p,0.4341934,323.9199198,None,,,,,,,,,,,,,,,,,,,8101003551,r,r,25,3,2022-03-10_11h43.42.757,HW1_Rostami_810100355,2022.1.1,60.04790623,r
50.bmp,"(0, -6.11)","(5.24, 5.24)",0,0,0,0,1,14,131,76,,,,,,,,,,,,,,,324.386311,None,324.8858201,324.9356424,p,0.4684737,324.8858201,None,,,,,,,,,,,,,,,,,,,8101003551,r,r,25,3,2022-03-10_11h43.42.757,HW1_Rostami_810100355,2022.1.1,60.04790623,r
20.bmp,"(1.74, 3)","(3.49, 3.49)",0,0,0,0,1,15,132,28,,,,,,,,,,,,,,,325.3853853,None,325.8850296,325.9350187,p,0.8870912,325.8850296,None,,,,,,,,,,,,,,,,,,,8101003551,r,r,25,3,2022-03-10_11h43.42.757,HW1_Rostami_810100355,2022.1.1,60.04790623,r
10.bmp,"(-1.74, 3)","(3.49, 3.49)",0,0,0,0,1,16,133,16,,,,,,,,,,,,,,,326.8008838,None,327.3002975,327.3501626,p,0.4678101,327.3002975,None,,,,,,,,,,,,,,,,,,,8101003551,r,r,25,3,2022-03-10_11h43.42.757,HW1_Rostami_810100355,2022.1.1,60.04790623,r
10.bmp,"(1.74, -3)","(3.49, 3.49)",0,0,0,0,1,17,134,19,,,,,,,,,,,,,,,327.7999276,None,328.2995859,328.3494459,p,0.8028672,328.2995859,None,,,,,,,,,,,,,,,,,,,8101003551,r,r,25,3,2022-03-10_11h43.42.757,HW1_Rostami_810100355,2022.1.1,60.04790623,r
20.bmp,"(0, 0)","(2.18, 2.18)",0,0,0,0,1,18,135,26,,,,,,,,,,,,,,,329.1319771,None,329.6316656,329.6817001,p,0.374804,329.6316656,None,,,,,,,,,,,,,,,,,,,8101003551,r,r,25,3,2022-03-10_11h43.42.757,HW1_Rostami_810100355,2022.1.1,60.04790623,r
60.bmp,"(0, 6.11)","(5.24, 5.24)",0,0,0,0,1,19,136,86,,,,,,,,,,,,,,,330.0314164,None,330.531154,330.580955,p,0.5289918,330.531154,None,,,,,,,,,,,,,,,,,,,8101003551,r,r,25,3,2022-03-10_11h43.42.757,HW1_Rostami_810100355,2022.1.1,60.04790623,r
30.bmp,"(0, 6.11)","(5.24, 5.24)",0,0,0,0,1,20,137,47,,,,,,,,,,,,,,,331.0803938,None,331.5802907,331.6301058,p,0.924267,331.5802907,None,,,,,,,,,,,,,,,,,,,8101003551,r,r,25,3,2022-03-10_11h43.42.757,HW1_Rostami_810100355,2022.1.1,60.04790623,r
30.bmp,"(-1.74, 3)","(3.49, 3.49)",0,0,0,0,1,21,138,42,,,,,,,,,,,,,,,332.5291029,None,333.028804,333.0788217,p,0.524367,333.028804,None,,,,,,,,,,,,,,,,,,,8101003551,r,r,25,3,2022-03-10_11h43.42.757,HW1_Rostami_810100355,2022.1.1,60.04790623,r
60.bmp,"(-5.25, 3.05)","(5.24, 5.24)",0,0,0,0,1,22,139,87,,,,,,,,,,,,,,,333.5782025,None,334.0779783,334.1279202,p,0.6299908,334.0779783,None,,,,,,,,,,,,,,,,,,,8101003551,r,r,25,3,2022-03-10_11h43.42.757,HW1_Rostami_810100355,2022.1.1,60.04790623,r
80.bmp,"(0, 6.11)","(5.24, 5.24)",0,0,0,0,1,23,140,112,,,,,,,,,,,,,,,334.7274423,None,335.2269773,335.276871,p,0.6400543,335.2269773,None,,,,,,,,,,,,,,,,,,,8101003551,r,r,25,3,2022-03-10_11h43.42.757,HW1_Rostami_810100355,2022.1.1,60.04790623,r
60.bmp,"(-1.74, 3)","(3.49, 3.49)",0,0,0,0,1,24,141,81,,,,,,,,,,,,,,,335.8928695,None,336.3929756,336.4427597,p,0.527174,336.3929756,None,,,,,,,,,,,,,,,,,,,8101003551,r,r,25,3,2022-03-10_11h43.42.757,HW1_Rostami_810100355,2022.1.1,60.04790623,r
70.bmp,"(1.74, 3)","(3.49, 3.49)",0,0,0,0,1,25,142,93,,,,,,,,,,,,,,,336.9423692,None,337.4418634,337.4914246,p,0.4993733,337.4418634,None,,,,,,,,,,,,,,,,,,,8101003551,r,r,25,3,2022-03-10_11h43.42.757,HW1_Rostami_810100355,2022.1.1,60.04790623,r
80.bmp,"(1.74, -3)","(3.49, 3.49)",0,0,0,0,1,26,143,110,,,,,,,,,,,,,,,337.9580309,None,338.4574709,338.5071049,p,0.4447281,338.4574709,None,,,,,,,,,,,,,,,,,,,8101003551,r,r,25,3,2022-03-10_11h43.42.757,HW1_Rostami_810100355,2022.1.1,60.04790623,r
30.bmp,"(5.25, 3.05)","(5.24, 5.24)",0,0,0,0,1,27,144,46,,,,,,,,,,,,,,,338.9236798,None,339.4234266,339.4731193,p,0.5558656,339.4234266,None,,,,,,,,,,,,,,,,,,,8101003551,r,r,25,3,2022-03-10_11h43.42.757,HW1_Rostami_810100355,2022.1.1,60.04790623,r
50.bmp,"(-3.49, 0)","(3.49, 3.49)",0,0,0,0,1,28,145,69,,,,,,,,,,,,,,,340.0059922,None,340.5059684,340.5554661,p,0.4381294,340.5059684,None,,,,,,,,,,,,,,,,,,,8101003551,r,r,25,3,2022-03-10_11h43.42.757,HW1_Rostami_810100355,2022.1.1,60.04790623,r
10.bmp,"(-5.25, 3.05)","(5.24, 5.24)",0,0,0,0,1,29,146,22,,,,,,,,,,,,,,,340.9718469,None,341.4715364,341.5214136,p,0.4303105,341.4715364,None,,,,,,,,,,,,,,,,,,,8101003551,r,r,25,3,2022-03-10_11h43.42.757,HW1_Rostami_810100355,2022.1.1,60.04790623,r
0.bmp,"(5.25, -3.05)","(5.24, 5.24)",0,0,0,0,1,30,147,12,,,,,,,,,,,,,,,341.9211781,None,342.4207939,342.4703665,p,0.6093503,342.4207939,None,,,,,,,,,,,,,,,,,,,8101003551,r,r,25,3,2022-03-10_11h43.42.757,HW1_Rostami_810100355,2022.1.1,60.04790623,r
40.bmp,"(0, -6.11)","(5.24, 5.24)",0,0,0,0,1,31,148,63,,,,,,,,,,,,,,,343.0532591,None,343.5528658,343.6027038,p,0.4908436,343.5528658,None,,,,,,,,,,,,,,,,,,,8101003551,r,r,25,3,2022-03-10_11h43.42.757,HW1_Rostami_810100355,2022.1.1,60.04790623,r
10.bmp,"(0, 0)","(2.18, 2.18)",0,0,0,0,1,32,149,13,,,,,,,,,,,,,,,344.0691736,None,344.568777,344.6185747,p,0.5933714,344.568777,None,,,,,,,,,,,,,,,,,,,8101003551,r,r,25,3,2022-03-10_11h43.42.757,HW1_Rostami_810100355,2022.1.1,60.04790623,r
10.bmp,"(-3.49, 0)","(3.49, 3.49)",0,0,0,0,1,33,150,17,,,,,,,,,,,,,,,345.1847115,None,345.6844006,345.7342423,p,0.433044,345.6844006,None,,,,,,,,,,,,,,,,,,,8101003551,r,r,25,3,2022-03-10_11h43.42.757,HW1_Rostami_810100355,2022.1.1,60.04790623,r
20.bmp,"(1.74, -3)","(3.49, 3.49)",0,0,0,0,1,34,151,32,,,,,,,,,,,,,,,346.1340454,None,346.6336784,346.6835369,p,0.4652997,346.6336784,None,,,,,,,,,,,,,,,,,,,8101003551,r,r,25,3,2022-03-10_11h43.42.757,HW1_Rostami_810100355,2022.1.1,60.04790623,r
80.bmp,"(5.25, -3.05)","(5.24, 5.24)",0,0,0,0,1,35,152,116,,,,,,,,,,,,,,,347.1164737,None,347.6160575,347.6659557,p,0.4945339,347.6160575,None,,,,,,,,,,,,,,,,,,,8101003551,r,r,25,3,2022-03-10_11h43.42.757,HW1_Rostami_810100355,2022.1.1,60.04790623,r
0.bmp,"(1.74, -3)","(3.49, 3.49)",0,0,0,0,1,36,153,6,,,,,,,,,,,,,,,348.13209,None,348.63189,348.681736,p,1.2483664,348.63189,None,,,,,,,,,,,,,,,,,,,8101003551,r,r,25,3,2022-03-10_11h43.42.757,HW1_Rostami_810100355,2022.1.1,60.04790623,r
30.bmp,"(-5.25, 3.05)","(5.24, 5.24)",0,0,0,0,1,37,154,48,,,,,,,,,,,,,,,349.8973579,None,350.3971385,350.4469705,p,1.6596672,350.3971385,None,,,,,,,,,,,,,,,,,,,8101003551,r,r,25,3,2022-03-10_11h43.42.757,HW1_Rostami_810100355,2022.1.1,60.04790623,r
10.bmp,"(-5.25, -3.05)","(5.24, 5.24)",0,0,0,0,1,38,155,23,,,,,,,,,,,,,,,352.078634,None,352.5788083,352.6285613,p,0.3798567,352.5788083,None,,,,,,,,,,,,,,,,,,,8101003551,r,r,25,3,2022-03-10_11h43.42.757,HW1_Rostami_810100355,2022.1.1,60.04790623,r
50.bmp,"(-5.25, 3.05)","(5.24, 5.24)",0,0,0,0,1,39,156,74,,,,,,,,,,,,,,,352.978169,None,353.4779094,353.5277721,p,0.6682863,353.4779094,None,,,,,,,,,,,,,,,,,,,8101003551,r,r,25,3,2022-03-10_11h43.42.757,HW1_Rostami_810100355,2022.1.1,60.04790623,r
70.bmp,"(-5.25, 3.05)","(5.24, 5.24)",0,0,0,0,1,40,157,100,,,,,,,,,,,,,,,354.1769715,None,354.6766315,354.726433,p,1.6048335,354.6766315,None,,,,,,,,,,,,,,,,,,,8101003551,r,r,25,3,2022-03-10_11h43.42.757,HW1_Rostami_810100355,2022.1.1,60.04790623,r
60.bmp,"(5.25, 3.05)","(5.24, 5.24)",0,0,0,0,1,41,158,85,,,,,,,,,,,,,,,356.3085144,None,356.8081568,356.8579738,p,0.4648514,356.8081568,None,,,,,,,,,,,,,,,,,,,8101003551,r,r,25,3,2022-03-10_11h43.42.757,HW1_Rostami_810100355,2022.1.1,60.04790623,r
30.bmp,"(3.49, 0)","(3.49, 3.49)",0,0,0,0,1,42,159,40,,,,,,,,,,,,,,,357.2912758,None,357.7906968,357.8405799,p,0.6132597,357.7906968,None,,,,,,,,,,,,,,,,,,,8101003551,r,r,25,3,2022-03-10_11h43.42.757,HW1_Rostami_810100355,2022.1.1,60.04790623,r
30.bmp,"(0, -6.11)","(5.24, 5.24)",0,0,0,0,1,43,160,50,,,,,,,,,,,,,,,358.4234362,None,358.9232027,358.9729816,p,0.732356,358.9232027,None,,,,,,,,,,,,,,,,,,,8101003551,r,r,25,3,2022-03-10_11h43.42.757,HW1_Rostami_810100355,2022.1.1,60.04790623,r
50.bmp,"(-1.74, 3)","(3.49, 3.49)",0,0,0,0,1,44,161,68,,,,,,,,,,,,,,,359.6721995,None,360.1718261,360.2217435,p,0.6122357,360.1718261,None,,,,,,,,,,,,,,,,,,,8101003551,r,r,25,3,2022-03-10_11h43.42.757,HW1_Rostami_810100355,2022.1.1,60.04790623,r
30.bmp,"(-1.74, -3)","(3.49, 3.49)",0,0,0,0,1,45,162,44,,,,,,,,,,,,,,,360.8045246,None,361.3041629,361.3539658,p,0.4427575,361.3041629,None,,,,,,,,,,,,,,,,,,,8101003551,r,r,25,3,2022-03-10_11h43.42.757,HW1_Rostami_810100355,2022.1.1,60.04790623,r
30.bmp,"(-3.49, 0)","(3.49, 3.49)",0,0,0,0,1,46,163,43,,,,,,,,,,,,,,,361.7704349,None,362.2698831,362.3196858,p,0.3665443,362.2698831,None,,,,,,,,,,,,,,,,,,,8101003551,r,r,25,3,2022-03-10_11h43.42.757,HW1_Rostami_810100355,2022.1.1,60.04790623,r
20.bmp,"(0, -6.11)","(5.24, 5.24)",0,0,0,0,1,47,164,37,,,,,,,,,,,,,,,362.653402,None,363.1525614,363.2024389,p,0.4067265,363.1525614,None,,,,,,,,,,,,,,,,,,,8101003551,r,r,25,3,2022-03-10_11h43.42.757,HW1_Rostami_810100355,2022.1.1,60.04790623,r
70.bmp,"(-1.74, 3)","(3.49, 3.49)",0,0,0,0,1,48,165,94,,,,,,,,,,,,,,,363.5857853,None,364.0852972,364.1349465,p,0.8492268,364.0852972,None,,,,,,,,,,,,,,,,,,,8101003551,r,r,25,3,2022-03-10_11h43.42.757,HW1_Rostami_810100355,2022.1.1,60.04790623,r
40.bmp,"(-1.74, 3)","(3.49, 3.49)",0,0,0,0,1,49,166,55,,,,,,,,,,,,,,,364.9676885,None,365.4673921,365.5172923,p,1.4595478,365.4673921,None,,,,,,,,,,,,,,,,,,,8101003551,r,r,25,3,2022-03-10_11h43.42.757,HW1_Rostami_810100355,2022.1.1,60.04790623,r
20.bmp,"(-5.25, -3.05)","(5.24, 5.24)",0,0,0,0,1,50,167,36,,,,,,,,,,,,,,,366.9495181,None,367.448922,367.499067,p,0.8750627,367.448922,None,,,,,,,,,,,,,,,,,,,8101003551,r,r,25,3,2022-03-10_11h43.42.757,HW1_Rostami_810100355,2022.1.1,60.04790623,r
40.bmp,"(1.74, -3)","(3.49, 3.49)",0,0,0,0,1,51,168,58,,,,,,,,,,,,,,,368.3478486,None,368.8473519,368.8971676,p,0.8453881,368.8473519,None,,,,,,,,,,,,,,,,,,,8101003551,r,r,25,3,2022-03-10_11h43.42.757,HW1_Rostami_810100355,2022.1.1,60.04790623,r
20.bmp,"(3.49, 0)","(3.49, 3.49)",0,0,0,0,1,52,169,27,,,,,,,,,,,,,,,369.71358,None,370.2131759,370.263095,p,0.4403779,370.2131759,None,,,,,,,,,,,,,,,,,,,8101003551,r,r,25,3,2022-03-10_11h43.42.757,HW1_Rostami_810100355,2022.1.1,60.04790623,r
20.bmp,"(5.25, -3.05)","(5.24, 5.24)",0,0,0,0,1,53,170,38,,,,,,,,,,,,,,,370.6792227,None,371.1788974,371.2287545,p,0.8637091,371.1788974,None,,,,,,,,,,,,,,,,,,,8101003551,r,r,25,3,2022-03-10_11h43.42.757,HW1_Rostami_810100355,2022.1.1,60.04790623,r
80.bmp,"(-5.25, 3.05)","(5.24, 5.24)",0,0,0,0,1,54,171,113,,,,,,,,,,,,,,,372.0615136,None,372.5609275,372.6109026,o,1.3979423,372.5609275,None,,,,,,,,,,,,,,,,,,,8101003551,r,r,25,3,2022-03-10_11h43.42.757,HW1_Rostami_810100355,2022.1.1,60.04790623,r
80.bmp,"(5.25, 3.05)","(5.24, 5.24)",0,0,0,0,1,55,172,111,,,,,,,,,,,,,,,373.9765199,None,374.4761366,374.5259284,o,1.3611463,374.4761366,None,,,,,,,,,,,,,,,,,,,8101003551,r,r,25,3,2022-03-10_11h43.42.757,HW1_Rostami_810100355,2022.1.1,60.04790623,r
80.bmp,"(-3.49, 0)","(3.49, 3.49)",0,0,0,0,1,56,173,108,,,,,,,,,,,,,,,375.8581534,None,376.3578241,376.4076558,p,0.5305382,376.3578241,None,,,,,,,,,,,,,,,,,,,8101003551,r,r,25,3,2022-03-10_11h43.42.757,HW1_Rostami_810100355,2022.1.1,60.04790623,r
0.bmp,"(0, 6.11)","(5.24, 5.24)",0,0,0,0,1,57,174,8,,,,,,,,,,,,,,,376.907141,None,377.4070052,377.4567313,p,0.795227,377.4070052,None,,,,,,,,,,,,,,,,,,,8101003551,r,r,25,3,2022-03-10_11h43.42.757,HW1_Rostami_810100355,2022.1.1,60.04790623,r
70.bmp,"(5.25, 3.05)","(5.24, 5.24)",0,0,0,0,1,58,175,98,,,,,,,,,,,,,,,378.22284,None,378.7223873,378.7722111,p,0.8062311,378.7223873,None,,,,,,,,,,,,,,,,,,,8101003551,r,r,25,3,2022-03-10_11h43.42.757,HW1_Rostami_810100355,2022.1.1,60.04790623,r
70.bmp,"(3.49, 0)","(3.49, 3.49)",0,0,0,0,1,59,176,92,,,,,,,,,,,,,,,379.5549367,None,380.0544613,380.104336,p,0.5727987,380.0544613,None,,,,,,,,,,,,,,,,,,,8101003551,r,r,25,3,2022-03-10_11h43.42.757,HW1_Rostami_810100355,2022.1.1,60.04790623,r
40.bmp,"(5.25, -3.05)","(5.24, 5.24)",0,0,0,0,1,60,177,64,,,,,,,,,,,,,,,380.6537365,None,381.1536174,381.2033993,p,0.6348808,381.1536174,None,,,,,,,,,,,,,,,,,,,8101003551,r,r,25,3,2022-03-10_11h43.42.757,HW1_Rostami_810100355,2022.1.1,60.04790623,r
50.bmp,"(0, 0)","(2.18, 2.18)",0,0,0,0,1,61,178,65,,,,,,,,,,,,,,,381.8196336,None,382.3190473,382.3688466,p,0.6155299,382.3190473,None,,,,,,,,,,,,,,,,,,,8101003551,r,r,25,3,2022-03-10_11h43.42.757,HW1_Rostami_810100355,2022.1.1,60.04790623,r
0.bmp,"(-1.74, -3)","(3.49, 3.49)",0,0,0,0,1,62,179,5,,,,,,,,,,,,,,,382.9522492,None,383.4519922,383.5018664,p,0.3486394,383.4519922,None,,,,,,,,,,,,,,,,,,,8101003551,r,r,25,3,2022-03-10_11h43.42.757,HW1_Rostami_810100355,2022.1.1,60.04790623,r
30.bmp,"(5.25, -3.05)","(5.24, 5.24)",0,0,0,0,1,63,180,51,,,,,,,,,,,,,,,383.8179994,None,384.3176407,384.3675183,p,0.6049354,384.3176407,None,,,,,,,,,,,,,,,,,,,8101003551,r,r,25,3,2022-03-10_11h43.42.757,HW1_Rostami_810100355,2022.1.1,60.04790623,r
0.bmp,"(3.49, 0)","(3.49, 3.49)",0,0,0,0,1,64,181,1,,,,,,,,,,,,,,,384.9501076,None,385.4498227,385.4999769,p,0.478562,385.4498227,None,,,,,,,,,,,,,,,,,,,8101003551,r,r,25,3,2022-03-10_11h43.42.757,HW1_Rostami_810100355,2022.1.1,60.04790623,r
70.bmp,"(-3.49, 0)","(3.49, 3.49)",0,0,0,0,1,65,182,95,,,,,,,,,,,,,,,385.9493218,None,386.4490498,386.4987881,p,0.4411441,386.4490498,None,,,,,,,,,,,,,,,,,,,8101003551,r,r,25,3,2022-03-10_11h43.42.757,HW1_Rostami_810100355,2022.1.1,60.04790623,r
30.bmp,"(1.74, 3)","(3.49, 3.49)",0,0,0,0,1,66,183,41,,,,,,,,,,,,,,,386.9154201,None,387.4149476,387.4646828,p,0.870255,387.4149476,None,,,,,,,,,,,,,,,,,,,8101003551,r,r,25,3,2022-03-10_11h43.42.757,HW1_Rostami_810100355,2022.1.1,60.04790623,r
20.bmp,"(-5.25, 3.05)","(5.24, 5.24)",0,0,0,0,1,67,184,35,,,,,,,,,,,,,,,388.3143066,None,388.8134545,388.8632765,p,0.9367516,388.8134545,None,,,,,,,,,,,,,,,,,,,8101003551,r,r,25,3,2022-03-10_11h43.42.757,HW1_Rostami_810100355,2022.1.1,60.04790623,r
80.bmp,"(-1.74, 3)","(3.49, 3.49)",0,0,0,0,1,68,185,107,,,,,,,,,,,,,,,389.7790422,None,390.2788899,390.3288659,o,3.7193711,390.2788899,None,,,,,,,,,,,,,,,,,,,8101003551,r,r,25,3,2022-03-10_11h43.42.757,HW1_Rostami_810100355,2022.1.1,60.04790623,r
10.bmp,"(0, -6.11)","(5.24, 5.24)",0,0,0,0,1,69,186,24,,,,,,,,,,,,,,,394.0256891,None,394.5250632,394.5749251,p,0.8986579,394.5250632,None,,,,,,,,,,,,,,,,,,,8101003551,r,r,25,3,2022-03-10_11h43.42.757,HW1_Rostami_810100355,2022.1.1,60.04790623,r
20.bmp,"(-1.74, 3)","(3.49, 3.49)",0,0,0,0,1,70,187,29,,,,,,,,,,,,,,,395.4414057,None,395.9405276,395.990534,p,0.7080364,395.9405276,None,,,,,,,,,,,,,,,,,,,8101003551,r,r,25,3,2022-03-10_11h43.42.757,HW1_Rostami_810100355,2022.1.1,60.04790623,r
10.bmp,"(5.25, 3.05)","(5.24, 5.24)",0,0,0,0,1,71,188,20,,,,,,,,,,,,,,,396.6731095,None,397.1730681,397.2229904,p,0.8030163,397.1730681,None,,,,,,,,,,,,,,,,,,,8101003551,r,r,25,3,2022-03-10_11h43.42.757,HW1_Rostami_810100355,2022.1.1,60.04790623,r
60.bmp,"(1.74, 3)","(3.49, 3.49)",0,0,0,0,1,72,189,80,,,,,,,,,,,,,,,398.0055333,None,398.5052971,398.5551346,p,0.9514258,398.5052971,None,,,,,,,,,,,,,,,,,,,8101003551,r,r,25,3,2022-03-10_11h43.42.757,HW1_Rostami_810100355,2022.1.1,60.04790623,r
0.bmp,"(-3.49, 0)","(3.49, 3.49)",0,0,0,0,1,73,190,4,,,,,,,,,,,,,,,399.4873235,None,399.9874572,400.0372033,p,0.9608466,399.9874572,None,,,,,,,,,,,,,,,,,,,8101003551,r,r,25,3,2022-03-10_11h43.42.757,HW1_Rostami_810100355,2022.1.1,60.04790623,r
20.bmp,"(0, 6.11)","(5.24, 5.24)",0,0,0,0,1,74,191,34,,,,,,,,,,,,,,,400.9697737,None,401.4692147,401.5190457,p,0.702607,401.4692147,None,,,,,,,,,,,,,,,,,,,8101003551,r,r,25,3,2022-03-10_11h43.42.757,HW1_Rostami_810100355,2022.1.1,60.04790623,r
0.bmp,"(1.74, 3)","(3.49, 3.49)",0,0,0,0,1,75,192,2,,,,,,,,,,,,,,,402.2015756,None,402.7017205,402.7518017,p,0.6799331,402.7017205,None,,,,,,,,,,,,,,,,,,,8101003551,r,r,25,3,2022-03-10_11h43.42.757,HW1_Rostami_810100355,2022.1.1,60.04790623,r
20.bmp,"(-1.74, -3)","(3.49, 3.49)",0,0,0,0,1,76,193,31,,,,,,,,,,,,,,,403.401236,None,403.9005381,403.9504264,p,0.6079962,403.9005381,None,,,,,,,,,,,,,,,,,,,8101003551,r,r,25,3,2022-03-10_11h43.42.757,HW1_Rostami_810100355,2022.1.1,60.04790623,r
10.bmp,"(1.74, 3)","(3.49, 3.49)",0,0,0,0,1,77,194,15,,,,,,,,,,,,,,,404.5329468,None,405.0328452,405.0828136,p,0.7563396,405.0328452,None,,,,,,,,,,,,,,,,,,,8101003551,r,r,25,3,2022-03-10_11h43.42.757,HW1_Rostami_810100355,2022.1.1,60.04790623,r
20.bmp,"(-3.49, 0)","(3.49, 3.49)",0,0,0,0,1,78,195,30,,,,,,,,,,,,,,,405.8154877,None,406.3151202,406.3651319,p,1.7946401,406.3151202,None,,,,,,,,,,,,,,,,,,,8101003551,r,r,25,3,2022-03-10_11h43.42.757,HW1_Rostami_810100355,2022.1.1,60.04790623,r
60.bmp,"(1.74, -3)","(3.49, 3.49)",0,0,0,0,1,79,196,84,,,,,,,,,,,,,,,408.130282,None,408.629722,408.6795367,p,3.8420612,408.629722,None,,,,,,,,,,,,,,,,,,,8101003551,r,r,25,3,2022-03-10_11h43.42.757,HW1_Rostami_810100355,2022.1.1,60.04790623,r
40.bmp,"(-5.25, 3.05)","(5.24, 5.24)",0,0,0,0,1,80,197,61,,,,,,,,,,,,,,,412.4926047,None,412.9925883,413.0423349,p,2.5812602,412.9925883,None,,,,,,,,,,,,,,,,,,,8101003551,r,r,25,3,2022-03-10_11h43.42.757,HW1_Rostami_810100355,2022.1.1,60.04790623,r
80.bmp,"(1.74, 3)","(3.49, 3.49)",0,0,0,0,1,81,198,106,,,,,,,,,,,,,,,415.6067225,None,416.1066636,416.1564987,p,3.1913592,416.1066636,None,,,,,,,,,,,,,,,,,,,8101003551,r,r,25,3,2022-03-10_11h43.42.757,HW1_Rostami_810100355,2022.1.1,60.04790623,r
40.bmp,"(3.49, 0)","(3.49, 3.49)",0,0,0,0,1,82,199,53,,,,,,,,,,,,,,,419.3205717,None,419.8201368,419.8700157,p,0.7916185,419.8201368,None,,,,,,,,,,,,,,,,,,,8101003551,r,r,25,3,2022-03-10_11h43.42.757,HW1_Rostami_810100355,2022.1.1,60.04790623,r
10.bmp,"(3.49, 0)","(3.49, 3.49)",0,0,0,0,1,83,200,14,,,,,,,,,,,,,,,420.6356858,None,421.1353294,421.1851564,p,0.4894833,421.1353294,None,,,,,,,,,,,,,,,,,,,8101003551,r,r,25,3,2022-03-10_11h43.42.757,HW1_Rostami_810100355,2022.1.1,60.04790623,r
60.bmp,"(0, -6.11)","(5.24, 5.24)",0,0,0,0,1,84,201,89,,,,,,,,,,,,,,,421.6514559,None,422.1509494,422.200758,p,0.7067572,422.1509494,None,,,,,,,,,,,,,,,,,,,8101003551,r,r,25,3,2022-03-10_11h43.42.757,HW1_Rostami_810100355,2022.1.1,60.04790623,r
50.bmp,"(-1.74, -3)","(3.49, 3.49)",0,0,0,0,1,85,202,70,,,,,,,,,,,,,,,422.8842299,None,423.3836489,423.4331262,p,0.6496564,423.3836489,None,,,,,,,,,,,,,,,,,,,8101003551,r,r,25,3,2022-03-10_11h43.42.757,HW1_Rostami_810100355,2022.1.1,60.04790623,r
50.bmp,"(5.25, -3.05)","(5.24, 5.24)",0,0,0,0,1,86,203,77,,,,,,,,,,,,,,,424.0662138,None,424.5658334,424.615652,p,0.8591055,424.5658334,None,,,,,,,,,,,,,,,,,,,8101003551,r,r,25,3,2022-03-10_11h43.42.757,HW1_Rostami_810100355,2022.1.1,60.04790623,r
30.bmp,"(1.74, -3)","(3.49, 3.49)",0,0,0,0,1,87,204,45,,,,,,,,,,,,,,,425.4482047,None,425.9478544,425.9976905,p,0.4935463,425.9478544,None,,,,,,,,,,,,,,,,,,,8101003551,r,r,25,3,2022-03-10_11h43.42.757,HW1_Rostami_810100355,2022.1.1,60.04790623,r
50.bmp,"(1.74, -3)","(3.49, 3.49)",0,0,0,0,1,88,205,71,,,,,,,,,,,,,,,426.4638495,None,426.9637894,427.0135502,p,1.4274599,426.9637894,None,,,,,,,,,,,,,,,,,,,8101003551,r,r,25,3,2022-03-10_11h43.42.757,HW1_Rostami_810100355,2022.1.1,60.04790623,r
80.bmp,"(-5.25, -3.05)","(5.24, 5.24)",0,0,0,0,1,89,206,114,,,,,,,,,,,,,,,428.4124497,None,428.9121976,428.9619787,p,0.7950453,428.9121976,None,,,,,,,,,,,,,,,,,,,8101003551,r,r,25,3,2022-03-10_11h43.42.757,HW1_Rostami_810100355,2022.1.1,60.04790623,r
0.bmp,"(5.25, 3.05)","(5.24, 5.24)",0,0,0,0,1,90,207,7,,,,,,,,,,,,,,,429.7279126,None,430.2272461,430.277103,p,0.9592391,430.2272461,None,,,,,,,,,,,,,,,,,,,8101003551,r,r,25,3,2022-03-10_11h43.42.757,HW1_Rostami_810100355,2022.1.1,60.04790623,r
10.bmp,"(-1.74, -3)","(3.49, 3.49)",0,0,0,0,1,91,208,18,,,,,,,,,,,,,,,431.2095729,None,431.7092868,431.7590976,p,0.9222595,431.7092868,None,,,,,,,,,,,,,,,,,,,8101003551,r,r,25,3,2022-03-10_11h43.42.757,HW1_Rostami_810100355,2022.1.1,60.04790623,r
10.bmp,"(5.25, -3.05)","(5.24, 5.24)",0,0,0,0,1,92,209,25,,,,,,,,,,,,,,,432.6583719,None,433.15872,433.2081634,p,1.424518,433.15872,None,,,,,,,,,,,,,,,,,,,8101003551,r,r,25,3,2022-03-10_11h43.42.757,HW1_Rostami_810100355,2022.1.1,60.04790623,r
70.bmp,"(1.74, -3)","(3.49, 3.49)",0,0,0,0,1,93,210,97,,,,,,,,,,,,,,,434.6067961,None,435.1067881,435.1566118,p,4.1313952,435.1067881,None,,,,,,,,,,,,,,,,,,,8101003551,r,r,25,3,2022-03-10_11h43.42.757,HW1_Rostami_810100355,2022.1.1,60.04790623,r
10.bmp,"(0, 6.11)","(5.24, 5.24)",0,0,0,0,1,94,211,21,,,,,,,,,,,,,,,439.2696175,None,439.769545,439.8195482,p,0.8836555,439.769545,None,,,,,,,,,,,,,,,,,,,8101003551,r,r,25,3,2022-03-10_11h43.42.757,HW1_Rostami_810100355,2022.1.1,60.04790623,r
40.bmp,"(1.74, 3)","(3.49, 3.49)",0,0,0,0,1,95,212,54,,,,,,,,,,,,,,,440.6852702,None,441.1847732,441.2344453,p,0.4846835,441.1847732,None,,,,,,,,,,,,,,,,,,,8101003551,r,r,25,3,2022-03-10_11h43.42.757,HW1_Rostami_810100355,2022.1.1,60.04790623,r
50.bmp,"(5.25, 3.05)","(5.24, 5.24)",0,0,0,0,1,96,213,72,,,,,,,,,,,,,,,441.7008967,None,442.2001575,442.2499877,p,0.8414843,442.2001575,None,,,,,,,,,,,,,,,,,,,8101003551,r,r,25,3,2022-03-10_11h43.42.757,HW1_Rostami_810100355,2022.1.1,60.04790623,r
0.bmp,"(-5.25, -3.05)","(5.24, 5.24)",0,0,0,0,1,97,214,10,,,,,,,,,,,,,,,443.0662396,None,443.56603,443.6157411,p,1.948179,443.56603,None,,,,,,,,,,,,,,,,,,,8101003551,r,r,25,3,2022-03-10_11h43.42.757,HW1_Rostami_810100355,2022.1.1,60.04790623,r
20.bmp,"(5.25, 3.05)","(5.24, 5.24)",0,0,0,0,1,98,215,33,,,,,,,,,,,,,,,445.5304862,None,446.0306575,446.0806043,p,1.5677197,446.0306575,None,,,,,,,,,,,,,,,,,,,8101003551,r,r,25,3,2022-03-10_11h43.42.757,HW1_Rostami_810100355,2022.1.1,60.04790623,r
0.bmp,"(-5.25, 3.05)","(5.24, 5.24)",0,0,0,0,1,99,216,9,,,,,,,,,,,,,,,447.628909,None,448.1288425,448.1784073,p,1.0054884,448.1288425,None,,,,,,,,,,,,,,,,,,,8101003551,r,r,25,3,2022-03-10_11h43.42.757,HW1_Rostami_810100355,2022.1.1,60.04790623,r
70.bmp,"(-1.74, -3)","(3.49, 3.49)",0,0,0,0,1,100,217,96,,,,,,,,,,,,,,,449.1611606,None,449.6606756,449.7107858,p,2.5788492,449.6606756,None,,,,,,,,,,,,,,,,,,,8101003551,r,r,25,3,2022-03-10_11h43.42.757,HW1_Rostami_810100355,2022.1.1,60.04790623,r
40.bmp,"(-1.74, -3)","(3.49, 3.49)",0,0,0,0,1,101,218,57,,,,,,,,,,,,,,,452.258326,None,452.7580547,452.808109,p,4.3427269,452.7580547,None,,,,,,,,,,,,,,,,,,,8101003551,r,r,25,3,2022-03-10_11h43.42.757,HW1_Rostami_810100355,2022.1.1,60.04790623,r
60.bmp,"(3.49, 0)","(3.49, 3.49)",0,0,0,0,1,102,219,79,,,,,,,,,,,,,,,457.1207972,None,457.6202268,457.6701232,p,4.260766,457.6202268,None,,,,,,,,,,,,,,,,,,,8101003551,r,r,25,3,2022-03-10_11h43.42.757,HW1_Rostami_810100355,2022.1.1,60.04790623,r
70.bmp,"(-5.25, -3.05)","(5.24, 5.24)",0,0,0,0,1,103,220,101,,,,,,,,,,,,,,,461.899668,None,462.3992511,462.4490492,p,0.8606966,462.3992511,None,,,,,,,,,,,,,,,,,,,8101003551,r,r,25,3,2022-03-10_11h43.42.757,HW1_Rostami_810100355,2022.1.1,60.04790623,r
50.bmp,"(0, 6.11)","(5.24, 5.24)",0,0,0,0,1,104,221,73,,,,,,,,,,,,,,,463.2819977,None,463.7816489,463.8315602,p,0.8615564,463.7816489,None,,,,,,,,,,,,,,,,,,,8101003551,r,r,25,3,2022-03-10_11h43.42.757,HW1_Rostami_810100355,2022.1.1,60.04790623,r
0.bmp,"(0, 0)","(2.18, 2.18)",0,0,0,0,1,105,222,0,,,,,,,,,,,,,,,464.6641029,None,465.1639527,465.2138403,p,0.6807533,465.1639527,None,,,,,,,,,,,,,,,,,,,8101003551,r,r,25,3,2022-03-10_11h43.42.757,HW1_Rostami_810100355,2022.1.1,60.04790623,r
70.bmp,"(5.25, -3.05)","(5.24, 5.24)",0,0,0,0,1,106,223,103,,,,,,,,,,,,,,,465.8630674,None,466.3628747,466.4125399,p,0.9061934,466.3628747,None,,,,,,,,,,,,,,,,,,,8101003551,r,r,25,3,2022-03-10_11h43.42.757,HW1_Rostami_810100355,2022.1.1,60.04790623,r
70.bmp,"(0, 0)","(2.18, 2.18)",0,0,0,0,1,107,224,91,,,,,,,,,,,,,,,467.2953523,None,467.7950297,467.8448405,p,0.6326411,467.7950297,None,,,,,,,,,,,,,,,,,,,8101003551,r,r,25,3,2022-03-10_11h43.42.757,HW1_Rostami_810100355,2022.1.1,60.04790623,r
0.bmp,"(-1.74, 3)","(3.49, 3.49)",0,0,0,0,1,108,225,3,,,,,,,,,,,,,,,468.4441818,None,468.9440989,468.993651,p,3.2944756,468.9440989,None,,,,,,,,,,,,,,,,,,,8101003551,r,r,25,3,2022-03-10_11h43.42.757,HW1_Rostami_810100355,2022.1.1,60.04790623,r
40.bmp,"(0, 6.11)","(5.24, 5.24)",0,0,0,0,1,109,226,60,,,,,,,,,,,,,,,472.2571906,None,472.7571874,472.8069394,p,1.0413483,472.7571874,None,,,,,,,,,,,,,,,,,,,8101003551,r,r,25,3,2022-03-10_11h43.42.757,HW1_Rostami_810100355,2022.1.1,60.04790623,r
70.bmp,"(0, -6.11)","(5.24, 5.24)",0,0,0,0,1,110,227,102,,,,,,,,,,,,,,,473.8227004,None,474.3224726,474.3722923,p,0.7555252,474.3224726,None,,,,,,,,,,,,,,,,,,,8101003551,r,r,25,3,2022-03-10_11h43.42.757,HW1_Rostami_810100355,2022.1.1,60.04790623,r
80.bmp,"(-1.74, -3)","(3.49, 3.49)",0,0,0,0,1,111,228,109,,,,,,,,,,,,,,,475.1049389,None,475.6048666,475.6547937,p,0.6368706,475.6048666,None,,,,,,,,,,,,,,,,,,,8101003551,r,r,25,3,2022-03-10_11h43.42.757,HW1_Rostami_810100355,2022.1.1,60.04790623,r
80.bmp,"(0, 0)","(2.18, 2.18)",0,0,0,0,1,112,229,104,,,,,,,,,,,,,,,476.2705756,None,476.7703929,476.8202034,p,0.5761892,476.7703929,None,,,,,,,,,,,,,,,,,,,8101003551,r,r,25,3,2022-03-10_11h43.42.757,HW1_Rostami_810100355,2022.1.1,60.04790623,r
60.bmp,"(5.25, -3.05)","(5.24, 5.24)",0,0,0,0,1,113,230,90,,,,,,,,,,,,,,,477.3696917,None,477.8694012,477.9192452,p,0.6773208,477.8694012,None,,,,,,,,,,,,,,,,,,,8101003551,r,r,25,3,2022-03-10_11h43.42.757,HW1_Rostami_810100355,2022.1.1,60.04790623,r
50.bmp,"(-5.25, -3.05)","(5.24, 5.24)",0,0,0,0,1,114,231,75,,,,,,,,,,,,,,,478.5686917,None,479.0683615,479.1181923,p,0.9916747,479.0683615,None,,,,,,,,,,,,,,,,,,,8101003551,r,r,25,3,2022-03-10_11h43.42.757,HW1_Rostami_810100355,2022.1.1,60.04790623,r
40.bmp,"(5.25, 3.05)","(5.24, 5.24)",0,0,0,0,1,115,232,59,,,,,,,,,,,,,,,480.084128,None,480.5838784,480.6336566,p,1.4822147,480.5838784,None,,,,,,,,,,,,,,,,,,,8101003551,r,r,25,3,2022-03-10_11h43.42.757,HW1_Rostami_810100355,2022.1.1,60.04790623,r
40.bmp,"(0, 0)","(2.18, 2.18)",0,0,0,0,1,116,233,52,,,,,,,,,,,,,,,482.0822238,None,482.5816372,482.6314943,p,1.7874647,482.5816372,None,,,,,,,,,,,,,,,,,,,8101003551,r,r,25,3,2022-03-10_11h43.42.757,HW1_Rostami_810100355,2022.1.1,60.04790623,r
10.bmp,"(-5.25, -3.05)","(5.24, 5.24)",0,0,0,0,,,,,0,0,0,23,,,,,,,,,,,,,,,,,,,484.3975834,None,484.3975834,None,space,15.3199341,484.3975834,None,499.7413121,None,500.249957,500.2994675,w,3.8693332,500.249957,None,,,8101003551,r,r,25,3,2022-03-10_11h43.42.757,HW1_Rostami_810100355,2022.1.1,60.04790623,l
60.bmp,"(5.25, -3.05)","(5.24, 5.24)",0,0,0,0,,,,,0,1,1,90,,,,,,,,,,,,,,,,,,,,,,,,,,,504.1466139,None,504.6459322,504.6957843,w,0.6522098,504.6459322,None,,,8101003551,r,r,25,3,2022-03-10_11h43.42.757,HW1_Rostami_810100355,2022.1.1,60.04790623,l
50.bmp,"(-5.25, -3.05)","(5.24, 5.24)",0,0,0,0,,,,,0,2,2,75,,,,,,,,,,,,,,,,,,,,,,,,,,,505.3287245,None,505.8285728,505.8783136,q,1.0264815,505.8285728,None,,,8101003551,r,r,25,3,2022-03-10_11h43.42.757,HW1_Rostami_810100355,2022.1.1,60.04790623,l
20.bmp,"(-3.49, 0)","(3.49, 3.49)",0,0,0,0,,,,,0,3,3,30,,,,,,,,,,,,,,,,,,,,,,,,,,,506.8772508,None,507.3769562,507.4268176,q,0.6901408,507.3769562,None,,,8101003551,r,r,25,3,2022-03-10_11h43.42.757,HW1_Rostami_810100355,2022.1.1,60.04790623,l
20.bmp,"(1.74, 3)","(3.49, 3.49)",0,0,0,0,,,,,0,4,4,28,,,,,,,,,,,,,,,,,,,,,,,,,,,508.0927626,None,508.5926127,508.6424909,w,0.7161922,508.5926127,None,,,8101003551,r,r,25,3,2022-03-10_11h43.42.757,HW1_Rostami_810100355,2022.1.1,60.04790623,l
40.bmp,"(5.25, 3.05)","(5.24, 5.24)",0,0,0,0,,,,,0,5,5,59,,,,,,,,,,,,,,,,,,,,,,,,,,,509.3252283,None,509.824916,509.8747198,q,1.8026439,509.824916,None,,,8101003551,r,r,25,3,2022-03-10_11h43.42.757,HW1_Rostami_810100355,2022.1.1,60.04790623,l
30.bmp,"(-3.49, 0)","(3.49, 3.49)",0,0,0,0,,,,,0,6,6,43,,,,,,,,,,,,,,,,,,,,,,,,,,,511.6567031,None,512.1561327,512.2057493,w,1.6648654,512.1561327,None,,,8101003551,r,r,25,3,2022-03-10_11h43.42.757,HW1_Rostami_810100355,2022.1.1,60.04790623,l
10.bmp,"(0, -6.11)","(5.24, 5.24)",0,0,0,0,,,,,0,7,7,24,,,,,,,,,,,,,,,,,,,,,,,,,,,513.8382049,None,514.3376605,514.3874881,q,1.8535874,514.3376605,None,,,8101003551,r,r,25,3,2022-03-10_11h43.42.757,HW1_Rostami_810100355,2022.1.1,60.04790623,l
20.bmp,"(0, -6.11)","(5.24, 5.24)",0,0,0,0,,,,,0,8,8,37,,,,,,,,,,,,,,,,,,,,,,,,,,,516.2193012,None,516.7191281,516.7687396,w,2.7227554,516.7191281,None,,,8101003551,r,r,25,3,2022-03-10_11h43.42.757,HW1_Rostami_810100355,2022.1.1,60.04790623,l
40.bmp,"(1.74, 3)","(3.49, 3.49)",0,0,0,0,,,,,0,9,9,54,,,,,,,,,,,,,,,,,,,,,,,,,,,519.4662722,None,519.9661126,520.0158147,w,1.6550026,519.9661126,None,,,8101003551,r,r,25,3,2022-03-10_11h43.42.757,HW1_Rostami_810100355,2022.1.1,60.04790623,l
50.bmp,"(-1.74, -3)","(3.49, 3.49)",0,0,0,0,,,,,0,10,10,70,,,,,,,,,,,,,,,,,,,,,,,,,,,521.6478034,None,522.147437,522.1971285,w,1.058035,522.147437,None,,,8101003551,r,r,25,3,2022-03-10_11h43.42.757,HW1_Rostami_810100355,2022.1.1,60.04790623,l
50.bmp,"(3.49, 0)","(3.49, 3.49)",0,0,0,0,,,,,0,11,11,66,,,,,,,,,,,,,,,,,,,,,,,,,,,523.229727,None,523.7295861,523.7795512,w,0.7779758,523.7295861,None,,,8101003551,r,r,25,3,2022-03-10_11h43.42.757,HW1_Rostami_810100355,2022.1.1,60.04790623,l
40.bmp,"(-3.49, 0)","(3.49, 3.49)",0,0,0,0,,,,,0,12,12,56,,,,,,,,,,,,,,,,,,,,,,,,,,,524.5288471,None,525.0284533,525.0783326,w,1.0825241,525.0284533,None,,,8101003551,r,r,25,3,2022-03-10_11h43.42.757,HW1_Rostami_810100355,2022.1.1,60.04790623,l
80.bmp,"(-1.74, -3)","(3.49, 3.49)",0,0,0,0,,,,,0,13,13,109,,,,,,,,,,,,,,,,,,,,,,,,,,,526.1275005,None,526.627197,526.6769702,w,0.7737115,526.627197,None,,,8101003551,r,r,25,3,2022-03-10_11h43.42.757,HW1_Rostami_810100355,2022.1.1,60.04790623,l
80.bmp,"(0, -6.11)","(5.24, 5.24)",0,0,0,0,,,,,0,14,14,115,,,,,,,,,,,,,,,,,,,,,,,,,,,527.426054,None,527.926012,527.9756305,w,2.0327075,527.926012,None,,,8101003551,r,r,25,3,2022-03-10_11h43.42.757,HW1_Rostami_810100355,2022.1.1,60.04790623,l
80.bmp,"(0, 0)","(2.18, 2.18)",0,0,0,0,,,,,0,15,15,104,,,,,,,,,,,,,,,,,,,,,,,,,,,529.9904569,None,530.4900414,530.5399192,w,2.7167404,530.4900414,None,,,8101003551,r,r,25,3,2022-03-10_11h43.42.757,HW1_Rostami_810100355,2022.1.1,60.04790623,l
20.bmp,"(-1.74, -3)","(3.49, 3.49)",0,0,0,0,,,,,0,16,16,31,,,,,,,,,,,,,,,,,,,,,,,,,,,533.2377001,None,533.7373321,533.7871889,w,1.4843704,533.7373321,None,,,8101003551,r,r,25,3,2022-03-10_11h43.42.757,HW1_Rostami_810100355,2022.1.1,60.04790623,l
70.bmp,"(0, 0)","(2.18, 2.18)",0,0,0,0,,,,,0,17,17,91,,,,,,,,,,,,,,,,,,,,,,,,,,,535.2525413,None,535.7522717,535.8021685,w,0.8781172,535.7522717,None,,,8101003551,r,r,25,3,2022-03-10_11h43.42.757,HW1_Rostami_810100355,2022.1.1,60.04790623,l
50.bmp,"(1.74, 3)","(3.49, 3.49)",0,0,0,0,,,,,0,18,18,67,,,,,,,,,,,,,,,,,,,,,,,,,,,536.6517882,None,537.1513447,537.2012135,w,0.7055778,537.1513447,None,,,8101003551,r,r,25,3,2022-03-10_11h43.42.757,HW1_Rostami_810100355,2022.1.1,60.04790623,l
30.bmp,"(-1.74, -3)","(3.49, 3.49)",0,0,0,0,,,,,0,19,19,44,,,,,,,,,,,,,,,,,,,,,,,,,,,537.883619,None,538.3836337,538.4335497,w,0.7590451,538.3836337,None,,,8101003551,r,r,25,3,2022-03-10_11h43.42.757,HW1_Rostami_810100355,2022.1.1,60.04790623,l
30.bmp,"(0, 0)","(2.18, 2.18)",0,0,0,0,,,,,0,20,20,39,,,,,,,,,,,,,,,,,,,,,,,,,,,539.166129,None,539.665387,539.7152565,w,0.9111539,539.665387,None,,,8101003551,r,r,25,3,2022-03-10_11h43.42.757,HW1_Rostami_810100355,2022.1.1,60.04790623,l
0.bmp,"(5.25, -3.05)","(5.24, 5.24)",0,0,0,0,,,,,0,21,21,12,,,,,,,,,,,,,,,,,,,,,,,,,,,540.5980634,None,541.0976915,541.1474874,w,0.9374956,541.0976915,None,,,8101003551,r,r,25,3,2022-03-10_11h43.42.757,HW1_Rostami_810100355,2022.1.1,60.04790623,l
40.bmp,"(-5.25, -3.05)","(5.24, 5.24)",0,0,0,0,,,,,0,22,22,62,,,,,,,,,,,,,,,,,,,,,,,,,,,542.0632766,None,542.5631106,542.6125751,w,0.8248256,542.5631106,None,,,8101003551,r,r,25,3,2022-03-10_11h43.42.757,HW1_Rostami_810100355,2022.1.1,60.04790623,l
10.bmp,"(1.74, -3)","(3.49, 3.49)",0,0,0,0,,,,,0,23,23,19,,,,,,,,,,,,,,,,,,,,,,,,,,,543.4122346,None,543.9118306,543.9618748,w,0.5307398,543.9118306,None,,,8101003551,r,r,25,3,2022-03-10_11h43.42.757,HW1_Rostami_810100355,2022.1.1,60.04790623,l
0.bmp,"(-1.74, -3)","(3.49, 3.49)",0,0,0,0,,,,,0,24,24,5,,,,,,,,,,,,,,,,,,,,,,,,,,,544.4616057,None,544.9611936,545.0109399,w,0.6685953,544.9611936,None,,,8101003551,r,r,25,3,2022-03-10_11h43.42.757,HW1_Rostami_810100355,2022.1.1,60.04790623,l
20.bmp,"(3.49, 0)","(3.49, 3.49)",0,0,0,0,,,,,0,25,25,27,,,,,,,,,,,,,,,,,,,,,,,,,,,545.6605275,None,546.1601443,546.2098565,w,0.7121321,546.1601443,None,,,8101003551,r,r,25,3,2022-03-10_11h43.42.757,HW1_Rostami_810100355,2022.1.1,60.04790623,l
70.bmp,"(5.25, -3.05)","(5.24, 5.24)",0,0,0,0,,,,,0,26,26,103,,,,,,,,,,,,,,,,,,,,,,,,,,,546.892745,None,547.3925112,547.4423085,w,1.1833718,547.3925112,None,,,8101003551,r,r,25,3,2022-03-10_11h43.42.757,HW1_Rostami_810100355,2022.1.1,60.04790623,l
0.bmp,"(-5.25, 3.05)","(5.24, 5.24)",0,0,0,0,,,,,0,27,27,9,,,,,,,,,,,,,,,,,,,,,,,,,,,548.6075843,None,549.1071682,549.1569922,w,1.1567274,549.1071682,None,,,8101003551,r,r,25,3,2022-03-10_11h43.42.757,HW1_Rostami_810100355,2022.1.1,60.04790623,l
70.bmp,"(-5.25, -3.05)","(5.24, 5.24)",0,0,0,0,,,,,0,28,28,101,,,,,,,,,,,,,,,,,,,,,,,,,,,550.2894226,None,550.789218,550.8390115,q,0.7985143,550.789218,None,,,8101003551,r,r,25,3,2022-03-10_11h43.42.757,HW1_Rostami_810100355,2022.1.1,60.04790623,l
40.bmp,"(0, 6.11)","(5.24, 5.24)",0,0,0,0,,,,,0,29,29,60,,,,,,,,,,,,,,,,,,,,,,,,,,,551.6049442,None,552.1048672,552.154632,q,0.9453526,552.1048672,None,,,8101003551,r,r,25,3,2022-03-10_11h43.42.757,HW1_Rostami_810100355,2022.1.1,60.04790623,l
10.bmp,"(5.25, 3.05)","(5.24, 5.24)",0,0,0,0,,,,,0,30,30,20,,,,,,,,,,,,,,,,,,,,,,,,,,,553.0707465,None,553.570219,553.619994,w,0.6573626,553.570219,None,,,8101003551,r,r,25,3,2022-03-10_11h43.42.757,HW1_Rostami_810100355,2022.1.1,60.04790623,l
30.bmp,"(3.49, 0)","(3.49, 3.49)",0,0,0,0,,,,,0,31,31,40,,,,,,,,,,,,,,,,,,,,,,,,,,,554.2526838,None,554.7522417,554.8020266,w,0.813368,554.7522417,None,,,8101003551,r,r,25,3,2022-03-10_11h43.42.757,HW1_Rostami_810100355,2022.1.1,60.04790623,l
30.bmp,"(-5.25, 3.05)","(5.24, 5.24)",0,0,0,0,,,,,0,32,32,48,,,,,,,,,,,,,,,,,,,,,,,,,,,555.584949,None,556.08466,556.1344942,q,1.0324787,556.08466,None,,,8101003551,r,r,25,3,2022-03-10_11h43.42.757,HW1_Rostami_810100355,2022.1.1,60.04790623,l
60.bmp,"(-5.25, 3.05)","(5.24, 5.24)",0,0,0,0,,,,,0,33,33,87,,,,,,,,,,,,,,,,,,,,,,,,,,,557.1334953,None,557.6334612,557.6830854,q,0.8040745,557.6334612,None,,,8101003551,r,r,25,3,2022-03-10_11h43.42.757,HW1_Rostami_810100355,2022.1.1,60.04790623,l
80.bmp,"(5.25, -3.05)","(5.24, 5.24)",0,0,0,0,,,,,0,34,34,116,,,,,,,,,,,,,,,,,,,,,,,,,,,558.4657029,None,558.9654058,559.0150443,w,1.1348867,558.9654058,None,,,8101003551,r,r,25,3,2022-03-10_11h43.42.757,HW1_Rostami_810100355,2022.1.1,60.04790623,l
70.bmp,"(-5.25, 3.05)","(5.24, 5.24)",0,0,0,0,,,,,0,35,35,100,,,,,,,,,,,,,,,,,,,,,,,,,,,560.1306966,None,560.6306529,560.6804726,w,3.7447661,560.6306529,None,,,8101003551,r,r,25,3,2022-03-10_11h43.42.757,HW1_Rostami_810100355,2022.1.1,60.04790623,l
10.bmp,"(0, 0)","(2.18, 2.18)",0,0,0,0,,,,,0,36,36,13,,,,,,,,,,,,,,,,,,,,,,,,,,,564.3938688,None,564.8933617,564.9434286,w,0.7836793,564.8933617,None,,,8101003551,r,r,25,3,2022-03-10_11h43.42.757,HW1_Rostami_810100355,2022.1.1,60.04790623,l
0.bmp,"(1.74, -3)","(3.49, 3.49)",0,0,0,0,,,,,0,37,37,6,,,,,,,,,,,,,,,,,,,,,,,,,,,565.709272,None,566.2088702,566.2586721,w,0.7500437,566.2088702,None,,,8101003551,r,r,25,3,2022-03-10_11h43.42.757,HW1_Rostami_810100355,2022.1.1,60.04790623,l
10.bmp,"(-3.49, 0)","(3.49, 3.49)",0,0,0,0,,,,,0,38,38,17,,,,,,,,,,,,,,,,,,,,,,,,,,,566.9917342,None,567.4913799,567.5412091,w,1.0824531,567.4913799,None,,,8101003551,r,r,25,3,2022-03-10_11h43.42.757,HW1_Rostami_810100355,2022.1.1,60.04790623,l
80.bmp,"(5.25, 3.05)","(5.24, 5.24)",0,0,0,0,,,,,0,39,39,111,,,,,,,,,,,,,,,,,,,,,,,,,,,568.5901392,None,569.0901576,569.1397488,w,1.7131167,569.0901576,None,,,8101003551,r,r,25,3,2022-03-10_11h43.42.757,HW1_Rostami_810100355,2022.1.1,60.04790623,l
60.bmp,"(0, 0)","(2.18, 2.18)",0,0,0,0,,,,,0,40,40,78,,,,,,,,,,,,,,,,,,,,,,,,,,,570.8217756,None,571.3213235,571.3711165,q,2.078051,571.3213235,None,,,8101003551,r,r,25,3,2022-03-10_11h43.42.757,HW1_Rostami_810100355,2022.1.1,60.04790623,l
70.bmp,"(0, 6.11)","(5.24, 5.24)",0,0,0,0,,,,,0,41,41,99,,,,,,,,,,,,,,,,,,,,,,,,,,,573.419387,None,573.9192851,573.9691062,q,0.7212815,573.9192851,None,,,8101003551,r,r,25,3,2022-03-10_11h43.42.757,HW1_Rostami_810100355,2022.1.1,60.04790623,l
30.bmp,"(1.74, -3)","(3.49, 3.49)",0,0,0,0,,,,,0,42,42,45,,,,,,,,,,,,,,,,,,,,,,,,,,,574.668209,None,575.1679473,575.2177265,w,0.5908596,575.1679473,None,,,8101003551,r,r,25,3,2022-03-10_11h43.42.757,HW1_Rostami_810100355,2022.1.1,60.04790623,l
60.bmp,"(1.74, -3)","(3.49, 3.49)",0,0,0,0,,,,,0,43,43,84,,,,,,,,,,,,,,,,,,,,,,,,,,,575.7839177,None,576.2834951,576.3333114,w,0.6356247,576.2834951,None,,,8101003551,r,r,25,3,2022-03-10_11h43.42.757,HW1_Rostami_810100355,2022.1.1,60.04790623,l
80.bmp,"(1.74, 3)","(3.49, 3.49)",0,0,0,0,,,,,0,44,44,106,,,,,,,,,,,,,,,,,,,,,,,,,,,576.9496184,None,577.4494953,577.4993049,w,0.7162936,577.4494953,None,,,8101003551,r,r,25,3,2022-03-10_11h43.42.757,HW1_Rostami_810100355,2022.1.1,60.04790623,l
40.bmp,"(3.49, 0)","(3.49, 3.49)",0,0,0,0,,,,,0,45,45,53,,,,,,,,,,,,,,,,,,,,,,,,,,,578.1986537,None,578.69824,578.7481026,w,0.5828495,578.69824,None,,,8101003551,r,r,25,3,2022-03-10_11h43.42.757,HW1_Rostami_810100355,2022.1.1,60.04790623,l
20.bmp,"(5.25, 3.05)","(5.24, 5.24)",0,0,0,0,,,,,0,46,46,33,,,,,,,,,,,,,,,,,,,,,,,,,,,579.2974909,None,579.797123,579.8469443,w,0.6570835,579.797123,None,,,8101003551,r,r,25,3,2022-03-10_11h43.42.757,HW1_Rostami_810100355,2022.1.1,60.04790623,l
70.bmp,"(1.74, 3)","(3.49, 3.49)",0,0,0,0,,,,,0,47,47,93,,,,,,,,,,,,,,,,,,,,,,,,,,,580.4797251,None,580.9795755,581.0292923,w,0.796378,580.9795755,None,,,8101003551,r,r,25,3,2022-03-10_11h43.42.757,HW1_Rostami_810100355,2022.1.1,60.04790623,l
40.bmp,"(0, -6.11)","(5.24, 5.24)",0,0,0,0,,,,,0,48,48,63,,,,,,,,,,,,,,,,,,,,,,,,,,,581.7954729,None,582.2948904,582.3447191,w,0.3664945,582.2948904,None,,,8101003551,r,r,25,3,2022-03-10_11h43.42.757,HW1_Rostami_810100355,2022.1.1,60.04790623,l
70.bmp,"(1.74, -3)","(3.49, 3.49)",0,0,0,0,,,,,0,49,49,97,,,,,,,,,,,,,,,,,,,,,,,,,,,582.6778116,None,583.1780657,583.2279634,w,0.8815174,583.1780657,None,,,8101003551,r,r,25,3,2022-03-10_11h43.42.757,HW1_Rostami_810100355,2022.1.1,60.04790623,l
50.bmp,"(5.25, 3.05)","(5.24, 5.24)",0,0,0,0,,,,,0,50,50,72,,,,,,,,,,,,,,,,,,,,,,,,,,,584.0768068,None,584.5766259,584.6262198,w,0.4935793,584.5766259,None,,,8101003551,r,r,25,3,2022-03-10_11h43.42.757,HW1_Rostami_810100355,2022.1.1,60.04790623,l
0.bmp,"(3.49, 0)","(3.49, 3.49)",0,0,0,0,,,,,0,51,51,1,,,,,,,,,,,,,,,,,,,,,,,,,,,585.0924459,None,585.5921197,585.6420411,w,1.3218087,585.5921197,None,,,8101003551,r,r,25,3,2022-03-10_11h43.42.757,HW1_Rostami_810100355,2022.1.1,60.04790623,l
0.bmp,"(-1.74, 3)","(3.49, 3.49)",0,0,0,0,,,,,0,52,52,3,,,,,,,,,,,,,,,,,,,,,,,,,,,586.9410454,None,587.4406557,587.4903776,w,0.6856331,587.4406557,None,,,8101003551,r,r,25,3,2022-03-10_11h43.42.757,HW1_Rostami_810100355,2022.1.1,60.04790623,l
60.bmp,"(-3.49, 0)","(3.49, 3.49)",0,0,0,0,,,,,0,53,53,82,,,,,,,,,,,,,,,,,,,,,,,,,,,588.1568112,None,588.6565136,588.7061461,w,1.5399214,588.6565136,None,,,8101003551,r,r,25,3,2022-03-10_11h43.42.757,HW1_Rostami_810100355,2022.1.1,60.04790623,l
20.bmp,"(-1.74, 3)","(3.49, 3.49)",0,0,0,0,,,,,0,54,54,29,,,,,,,,,,,,,,,,,,,,,,,,,,,590.221689,None,590.7211925,590.7710606,w,0.6062708,590.7211925,None,,,8101003551,r,r,25,3,2022-03-10_11h43.42.757,HW1_Rostami_810100355,2022.1.1,60.04790623,l
60.bmp,"(1.74, 3)","(3.49, 3.49)",0,0,0,0,,,,,0,55,55,80,,,,,,,,,,,,,,,,,,,,,,,,,,,591.35397,None,591.8534617,591.9032312,w,0.7431568,591.8534617,None,,,8101003551,r,r,25,3,2022-03-10_11h43.42.757,HW1_Rostami_810100355,2022.1.1,60.04790623,l
20.bmp,"(5.25, -3.05)","(5.24, 5.24)",0,0,0,0,,,,,0,56,56,38,,,,,,,,,,,,,,,,,,,,,,,,,,,592.6191047,None,593.1190127,593.1689297,w,0.7995322,593.1190127,None,,,8101003551,r,r,25,3,2022-03-10_11h43.42.757,HW1_Rostami_810100355,2022.1.1,60.04790623,l
10.bmp,"(-5.25, 3.05)","(5.24, 5.24)",0,0,0,0,,,,,0,57,57,22,,,,,,,,,,,,,,,,,,,,,,,,,,,593.9351757,None,594.4346916,594.4845469,w,0.6977988,594.4346916,None,,,8101003551,r,r,25,3,2022-03-10_11h43.42.757,HW1_Rostami_810100355,2022.1.1,60.04790623,l
70.bmp,"(-3.49, 0)","(3.49, 3.49)",0,0,0,0,,,,,0,58,58,95,,,,,,,,,,,,,,,,,,,,,,,,,,,595.1503609,None,595.6501172,595.6999401,w,1.7131332,595.6501172,None,,,8101003551,r,r,25,3,2022-03-10_11h43.42.757,HW1_Rostami_810100355,2022.1.1,60.04790623,l
30.bmp,"(5.25, 3.05)","(5.24, 5.24)",0,0,0,0,,,,,0,59,59,46,,,,,,,,,,,,,,,,,,,,,,,,,,,597.3817905,None,597.8819214,597.9316604,w,0.7991368,597.8819214,None,,,8101003551,r,r,25,3,2022-03-10_11h43.42.757,HW1_Rostami_810100355,2022.1.1,60.04790623,l
0.bmp,"(1.74, 3)","(3.49, 3.49)",0,0,0,0,,,,,0,60,60,2,,,,,,,,,,,,,,,,,,,,,,,,,,,598.6974245,None,599.1970816,599.2469772,w,0.7397041,599.1970816,None,,,8101003551,r,r,25,3,2022-03-10_11h43.42.757,HW1_Rostami_810100355,2022.1.1,60.04790623,l
0.bmp,"(-3.49, 0)","(3.49, 3.49)",0,0,0,0,,,,,0,61,61,4,,,,,,,,,,,,,,,,,,,,,,,,,,,599.9629176,None,600.4626219,600.5124681,w,0.725601,600.4626219,None,,,8101003551,r,r,25,3,2022-03-10_11h43.42.757,HW1_Rostami_810100355,2022.1.1,60.04790623,l
20.bmp,"(-5.25, -3.05)","(5.24, 5.24)",0,0,0,0,,,,,0,62,62,36,,,,,,,,,,,,,,,,,,,,,,,,,,,601.2116929,None,601.7113699,601.7613983,q,1.0710125,601.7113699,None,,,8101003551,r,r,25,3,2022-03-10_11h43.42.757,HW1_Rostami_810100355,2022.1.1,60.04790623,l
40.bmp,"(-1.74, -3)","(3.49, 3.49)",0,0,0,0,,,,,0,63,63,57,,,,,,,,,,,,,,,,,,,,,,,,,,,602.8106117,None,603.3102075,603.3599319,q,0.6752055,603.3102075,None,,,8101003551,r,r,25,3,2022-03-10_11h43.42.757,HW1_Rostami_810100355,2022.1.1,60.04790623,l
10.bmp,"(5.25, -3.05)","(5.24, 5.24)",0,0,0,0,,,,,0,64,64,25,,,,,,,,,,,,,,,,,,,,,,,,,,,604.0095237,None,604.5094084,604.5592854,w,0.5934139,604.5094084,None,,,8101003551,r,r,25,3,2022-03-10_11h43.42.757,HW1_Rostami_810100355,2022.1.1,60.04790623,l
70.bmp,"(0, -6.11)","(5.24, 5.24)",0,0,0,0,,,,,0,65,65,102,,,,,,,,,,,,,,,,,,,,,,,,,,,605.1254141,None,605.624739,605.6745454,q,0.4733948,605.624739,None,,,8101003551,r,r,25,3,2022-03-10_11h43.42.757,HW1_Rostami_810100355,2022.1.1,60.04790623,l
20.bmp,"(1.74, -3)","(3.49, 3.49)",0,0,0,0,,,,,0,66,66,32,,,,,,,,,,,,,,,,,,,,,,,,,,,606.1241995,None,606.6239239,606.6736818,w,0.5502925,606.6239239,None,,,8101003551,r,r,25,3,2022-03-10_11h43.42.757,HW1_Rostami_810100355,2022.1.1,60.04790623,l
50.bmp,"(-3.49, 0)","(3.49, 3.49)",0,0,0,0,,,,,0,67,67,69,,,,,,,,,,,,,,,,,,,,,,,,,,,607.2066949,None,607.7063409,607.7561823,w,0.665037,607.7063409,None,,,8101003551,r,r,25,3,2022-03-10_11h43.42.757,HW1_Rostami_810100355,2022.1.1,60.04790623,l
20.bmp,"(0, 0)","(2.18, 2.18)",0,0,0,0,,,,,0,68,68,26,,,,,,,,,,,,,,,,,,,,,,,,,,,608.389008,None,608.8886139,608.9385331,w,0.9515998,608.8886139,None,,,8101003551,r,r,25,3,2022-03-10_11h43.42.757,HW1_Rostami_810100355,2022.1.1,60.04790623,l
60.bmp,"(-5.25, -3.05)","(5.24, 5.24)",0,0,0,0,,,,,0,69,69,88,,,,,,,,,,,,,,,,,,,,,,,,,,,609.8707726,None,610.3706177,610.4204724,w,0.7319656,610.3706177,None,,,8101003551,r,r,25,3,2022-03-10_11h43.42.757,HW1_Rostami_810100355,2022.1.1,60.04790623,l
80.bmp,"(1.74, -3)","(3.49, 3.49)",0,0,0,0,,,,,0,70,70,110,,,,,,,,,,,,,,,,,,,,,,,,,,,611.1197162,None,611.6198044,611.6695994,w,0.6797635,611.6198044,None,,,8101003551,r,r,25,3,2022-03-10_11h43.42.757,HW1_Rostami_810100355,2022.1.1,60.04790623,l
10.bmp,"(0, 6.11)","(5.24, 5.24)",0,0,0,0,,,,,0,71,71,21,,,,,,,,,,,,,,,,,,,,,,,,,,,612.3185738,None,612.8185205,612.868638,w,0.8047583,612.8185205,None,,,8101003551,r,r,25,3,2022-03-10_11h43.42.757,HW1_Rostami_810100355,2022.1.1,60.04790623,l
60.bmp,"(0, -6.11)","(5.24, 5.24)",0,0,0,0,,,,,0,72,72,89,,,,,,,,,,,,,,,,,,,,,,,,,,,613.6509957,None,614.1508125,614.2006424,w,0.9261501,614.1508125,None,,,8101003551,r,r,25,3,2022-03-10_11h43.42.757,HW1_Rostami_810100355,2022.1.1,60.04790623,l
0.bmp,"(0, -6.11)","(5.24, 5.24)",0,0,0,0,,,,,0,73,73,11,,,,,,,,,,,,,,,,,,,,,,,,,,,615.0998212,None,615.5994383,615.6493509,w,0.7205376,615.5994383,None,,,8101003551,r,r,25,3,2022-03-10_11h43.42.757,HW1_Rostami_810100355,2022.1.1,60.04790623,l
70.bmp,"(-1.74, 3)","(3.49, 3.49)",0,0,0,0,,,,,0,74,74,94,,,,,,,,,,,,,,,,,,,,,,,,,,,616.3488829,None,616.8482382,616.8981442,w,1.839125,616.8482382,None,,,8101003551,r,r,25,3,2022-03-10_11h43.42.757,HW1_Rostami_810100355,2022.1.1,60.04790623,l
70.bmp,"(-1.74, -3)","(3.49, 3.49)",0,0,0,0,,,,,0,75,75,96,,,,,,,,,,,,,,,,,,,,,,,,,,,618.7133449,None,619.2130644,619.2629094,q,0.8740705,619.2130644,None,,,8101003551,r,r,25,3,2022-03-10_11h43.42.757,HW1_Rostami_810100355,2022.1.1,60.04790623,l
60.bmp,"(5.25, 3.05)","(5.24, 5.24)",0,0,0,0,,,,,0,76,76,85,,,,,,,,,,,,,,,,,,,,,,,,,,,620.111961,None,620.6118986,620.6617041,w,0.5667164,620.6118986,None,,,8101003551,r,r,25,3,2022-03-10_11h43.42.757,HW1_Rostami_810100355,2022.1.1,60.04790623,l
30.bmp,"(0, 6.11)","(5.24, 5.24)",0,0,0,0,,,,,0,77,77,47,,,,,,,,,,,,,,,,,,,,,,,,,,,621.210971,None,621.7106971,621.7605103,w,0.8078172,621.7106971,None,,,8101003551,r,r,25,3,2022-03-10_11h43.42.757,HW1_Rostami_810100355,2022.1.1,60.04790623,l
10.bmp,"(-1.74, -3)","(3.49, 3.49)",0,0,0,0,,,,,0,78,78,18,,,,,,,,,,,,,,,,,,,,,,,,,,,622.5430035,None,623.0430198,623.092959,w,0.6917859,623.0430198,None,,,8101003551,r,r,25,3,2022-03-10_11h43.42.757,HW1_Rostami_810100355,2022.1.1,60.04790623,l
20.bmp,"(0, 6.11)","(5.24, 5.24)",0,0,0,0,,,,,0,79,79,34,,,,,,,,,,,,,,,,,,,,,,,,,,,623.7589504,None,624.2587948,624.308543,w,0.5558057,624.2587948,None,,,8101003551,r,r,25,3,2022-03-10_11h43.42.757,HW1_Rostami_810100355,2022.1.1,60.04790623,l
40.bmp,"(1.74, -3)","(3.49, 3.49)",0,0,0,0,,,,,0,80,80,58,,,,,,,,,,,,,,,,,,,,,,,,,,,624.841122,None,625.3408619,625.3907472,w,0.5686899,625.3408619,None,,,8101003551,r,r,25,3,2022-03-10_11h43.42.757,HW1_Rostami_810100355,2022.1.1,60.04790623,l
0.bmp,"(0, 0)","(2.18, 2.18)",0,0,0,0,,,,,0,81,81,0,,,,,,,,,,,,,,,,,,,,,,,,,,,625.9400725,None,626.439828,626.4897049,w,0.7353559,626.439828,None,,,8101003551,r,r,25,3,2022-03-10_11h43.42.757,HW1_Rostami_810100355,2022.1.1,60.04790623,l
30.bmp,"(5.25, -3.05)","(5.24, 5.24)",0,0,0,0,,,,,0,82,82,51,,,,,,,,,,,,,,,,,,,,,,,,,,,627.2056562,None,627.705276,627.7551275,w,0.630279,627.705276,None,,,8101003551,r,r,25,3,2022-03-10_11h43.42.757,HW1_Rostami_810100355,2022.1.1,60.04790623,l
50.bmp,"(-5.25, 3.05)","(5.24, 5.24)",0,0,0,0,,,,,0,83,83,74,,,,,,,,,,,,,,,,,,,,,,,,,,,628.35479,None,628.8546719,628.9046595,w,0.8746424,628.8546719,None,,,8101003551,r,r,25,3,2022-03-10_11h43.42.757,HW1_Rostami_810100355,2022.1.1,60.04790623,l
50.bmp,"(5.25, -3.05)","(5.24, 5.24)",0,0,0,0,,,,,0,84,84,77,,,,,,,,,,,,,,,,,,,,,,,,,,,629.753469,None,630.2535469,630.3033366,w,0.5370992,630.2535469,None,,,8101003551,r,r,25,3,2022-03-10_11h43.42.757,HW1_Rostami_810100355,2022.1.1,60.04790623,l
60.bmp,"(-1.74, 3)","(3.49, 3.49)",0,0,0,0,,,,,0,85,85,81,,,,,,,,,,,,,,,,,,,,,,,,,,,630.8194227,None,631.3192126,631.3690855,w,0.8389313,631.3192126,None,,,8101003551,r,r,25,3,2022-03-10_11h43.42.757,HW1_Rostami_810100355,2022.1.1,60.04790623,l
20.bmp,"(-5.25, 3.05)","(5.24, 5.24)",0,0,0,0,,,,,0,86,86,35,,,,,,,,,,,,,,,,,,,,,,,,,,,632.1848367,None,632.6842985,632.7340754,w,0.8428231,632.6842985,None,,,8101003551,r,r,25,3,2022-03-10_11h43.42.757,HW1_Rostami_810100355,2022.1.1,60.04790623,l
60.bmp,"(-1.74, -3)","(3.49, 3.49)",0,0,0,0,,,,,0,87,87,83,,,,,,,,,,,,,,,,,,,,,,,,,,,633.5506122,None,634.0503884,634.1002174,w,1.46556,634.0503884,None,,,8101003551,r,r,25,3,2022-03-10_11h43.42.757,HW1_Rostami_810100355,2022.1.1,60.04790623,l
50.bmp,"(0, 6.11)","(5.24, 5.24)",0,0,0,0,,,,,0,88,88,73,,,,,,,,,,,,,,,,,,,,,,,,,,,635.5487846,None,636.0482266,636.0981343,w,5.3207494,636.0482266,None,,,8101003551,r,r,25,3,2022-03-10_11h43.42.757,HW1_Rostami_810100355,2022.1.1,60.04790623,l
70.bmp,"(3.49, 0)","(3.49, 3.49)",0,0,0,0,,,,,0,89,89,92,,,,,,,,,,,,,,,,,,,,,,,,,,,641.393667,None,641.8933636,641.9432143,w,1.0717069,641.8933636,None,,,8101003551,r,r,25,3,2022-03-10_11h43.42.757,HW1_Rostami_810100355,2022.1.1,60.04790623,l
70.bmp,"(5.25, 3.05)","(5.24, 5.24)",0,0,0,0,,,,,0,90,90,98,,,,,,,,,,,,,,,,,,,,,,,,,,,642.9924834,None,643.4918665,643.5416464,w,0.6422007,643.4918665,None,,,8101003551,r,r,25,3,2022-03-10_11h43.42.757,HW1_Rostami_810100355,2022.1.1,60.04790623,l
60.bmp,"(3.49, 0)","(3.49, 3.49)",0,0,0,0,,,,,0,91,91,79,,,,,,,,,,,,,,,,,,,,,,,,,,,644.1578689,None,644.6575808,644.7074731,w,0.4933357,644.6575808,None,,,8101003551,r,r,25,3,2022-03-10_11h43.42.757,HW1_Rostami_810100355,2022.1.1,60.04790623,l
40.bmp,"(-1.74, 3)","(3.49, 3.49)",0,0,0,0,,,,,0,92,92,55,,,,,,,,,,,,,,,,,,,,,,,,,,,645.1734976,None,645.6731888,645.7230625,w,0.4991611,645.6731888,None,,,8101003551,r,r,25,3,2022-03-10_11h43.42.757,HW1_Rostami_810100355,2022.1.1,60.04790623,l
50.bmp,"(1.74, -3)","(3.49, 3.49)",0,0,0,0,,,,,0,93,93,71,,,,,,,,,,,,,,,,,,,,,,,,,,,646.1892285,None,646.6890854,646.7390805,w,0.5635102,646.6890854,None,,,8101003551,r,r,25,3,2022-03-10_11h43.42.757,HW1_Rostami_810100355,2022.1.1,60.04790623,l
0.bmp,"(-5.25, -3.05)","(5.24, 5.24)",0,0,0,0,,,,,0,94,94,10,,,,,,,,,,,,,,,,,,,,,,,,,,,647.2716798,None,647.7714063,647.8212851,w,0.5101326,647.7714063,None,,,8101003551,r,r,25,3,2022-03-10_11h43.42.757,HW1_Rostami_810100355,2022.1.1,60.04790623,l
80.bmp,"(-3.49, 0)","(3.49, 3.49)",0,0,0,0,,,,,0,95,95,108,,,,,,,,,,,,,,,,,,,,,,,,,,,648.3041179,None,648.8041587,648.8536668,w,4.279269,648.8041587,None,,,8101003551,r,r,25,3,2022-03-10_11h43.42.757,HW1_Rostami_810100355,2022.1.1,60.04790623,l
80.bmp,"(-5.25, 3.05)","(5.24, 5.24)",0,0,0,0,,,,,0,96,96,113,,,,,,,,,,,,,,,,,,,,,,,,,,,653.1002238,None,653.5998597,653.6498623,w,1.0329371,653.5998597,None,,,8101003551,r,r,25,3,2022-03-10_11h43.42.757,HW1_Rostami_810100355,2022.1.1,60.04790623,l
50.bmp,"(0, -6.11)","(5.24, 5.24)",0,0,0,0,,,,,0,97,97,76,,,,,,,,,,,,,,,,,,,,,,,,,,,654.6653578,None,655.1651854,655.2151329,w,0.6390155,655.1651854,None,,,8101003551,r,r,25,3,2022-03-10_11h43.42.757,HW1_Rostami_810100355,2022.1.1,60.04790623,l
30.bmp,"(1.74, 3)","(3.49, 3.49)",0,0,0,0,,,,,0,98,98,41,,,,,,,,,,,,,,,,,,,,,,,,,,,655.8310987,None,656.3305093,656.3803161,w,3.1463684,656.3305093,None,,,8101003551,r,r,25,3,2022-03-10_11h43.42.757,HW1_Rostami_810100355,2022.1.1,60.04790623,l
10.bmp,"(3.49, 0)","(3.49, 3.49)",0,0,0,0,,,,,0,99,99,14,,,,,,,,,,,,,,,,,,,,,,,,,,,659.494675,None,659.994364,660.044241,w,0.768437,659.994364,None,,,8101003551,r,r,25,3,2022-03-10_11h43.42.757,HW1_Rostami_810100355,2022.1.1,60.04790623,l
80.bmp,"(3.49, 0)","(3.49, 3.49)",0,0,0,0,,,,,0,100,100,105,,,,,,,,,,,,,,,,,,,,,,,,,,,660.7932841,None,661.2931067,661.3430366,w,0.6381216,661.2931067,None,,,8101003551,r,r,25,3,2022-03-10_11h43.42.757,HW1_Rostami_810100355,2022.1.1,60.04790623,l
0.bmp,"(5.25, 3.05)","(5.24, 5.24)",0,0,0,0,,,,,0,101,101,7,,,,,,,,,,,,,,,,,,,,,,,,,,,661.9589033,None,662.4583452,662.5081604,w,0.8163626,662.4583452,None,,,8101003551,r,r,25,3,2022-03-10_11h43.42.757,HW1_Rostami_810100355,2022.1.1,60.04790623,l
40.bmp,"(0, 0)","(2.18, 2.18)",0,0,0,0,,,,,0,102,102,52,,,,,,,,,,,,,,,,,,,,,,,,,,,663.2910724,None,663.7909138,663.8406009,w,0.6646681,663.7909138,None,,,8101003551,r,r,25,3,2022-03-10_11h43.42.757,HW1_Rostami_810100355,2022.1.1,60.04790623,l
50.bmp,"(0, 0)","(2.18, 2.18)",0,0,0,0,,,,,0,103,103,65,,,,,,,,,,,,,,,,,,,,,,,,,,,664.4734747,None,664.9732747,665.0230526,w,2.5576668,664.9732747,None,,,8101003551,r,r,25,3,2022-03-10_11h43.42.757,HW1_Rostami_810100355,2022.1.1,60.04790623,l
40.bmp,"(-5.25, 3.05)","(5.24, 5.24)",0,0,0,0,,,,,0,104,104,61,,,,,,,,,,,,,,,,,,,,,,,,,,,667.5540643,None,668.0536828,668.1034358,w,2.7239243,668.0536828,None,,,8101003551,r,r,25,3,2022-03-10_11h43.42.757,HW1_Rostami_810100355,2022.1.1,60.04790623,l
0.bmp,"(0, 6.11)","(5.24, 5.24)",0,0,0,0,,,,,0,105,105,8,,,,,,,,,,,,,,,,,,,,,,,,,,,670.8012701,None,671.3011331,671.3506146,w,0.7588865,671.3011331,None,,,8101003551,r,r,25,3,2022-03-10_11h43.42.757,HW1_Rostami_810100355,2022.1.1,60.04790623,l
80.bmp,"(-5.25, -3.05)","(5.24, 5.24)",0,0,0,0,,,,,0,106,106,114,,,,,,,,,,,,,,,,,,,,,,,,,,,672.0836842,None,672.5828605,672.6326551,w,0.7469589,672.5828605,None,,,8101003551,r,r,25,3,2022-03-10_11h43.42.757,HW1_Rostami_810100355,2022.1.1,60.04790623,l
30.bmp,"(-5.25, -3.05)","(5.24, 5.24)",0,0,0,0,,,,,0,107,107,49,,,,,,,,,,,,,,,,,,,,,,,,,,,673.3488654,None,673.848633,673.8985093,w,5.0119822,673.848633,None,,,8101003551,r,r,25,3,2022-03-10_11h43.42.757,HW1_Rostami_810100355,2022.1.1,60.04790623,l
40.bmp,"(5.25, -3.05)","(5.24, 5.24)",0,0,0,0,,,,,0,108,108,64,,,,,,,,,,,,,,,,,,,,,,,,,,,678.8774002,None,679.3773434,679.4271254,w,0.6217604,679.3773434,None,,,8101003551,r,r,25,3,2022-03-10_11h43.42.757,HW1_Rostami_810100355,2022.1.1,60.04790623,l
80.bmp,"(0, 6.11)","(5.24, 5.24)",0,0,0,0,,,,,0,109,109,112,,,,,,,,,,,,,,,,,,,,,,,,,,,680.0264662,None,680.5264607,680.576181,w,0.7921709,680.5264607,None,,,8101003551,r,r,25,3,2022-03-10_11h43.42.757,HW1_Rostami_810100355,2022.1.1,60.04790623,l
30.bmp,"(-1.74, 3)","(3.49, 3.49)",0,0,0,0,,,,,0,110,110,42,,,,,,,,,,,,,,,,,,,,,,,,,,,681.3422689,None,681.8417691,681.8916159,w,0.7696538,681.8417691,None,,,8101003551,r,r,25,3,2022-03-10_11h43.42.757,HW1_Rostami_810100355,2022.1.1,60.04790623,l
10.bmp,"(-1.74, 3)","(3.49, 3.49)",0,0,0,0,,,,,0,111,111,16,,,,,,,,,,,,,,,,,,,,,,,,,,,682.640621,None,683.1406863,683.1902761,w,0.8445024,683.1406863,None,,,8101003551,r,r,25,3,2022-03-10_11h43.42.757,HW1_Rostami_810100355,2022.1.1,60.04790623,l
50.bmp,"(-1.74, 3)","(3.49, 3.49)",0,0,0,0,,,,,0,112,112,68,,,,,,,,,,,,,,,,,,,,,,,,,,,684.0064211,None,684.5060334,684.555851,w,0.8417508,684.5060334,None,,,8101003551,r,r,25,3,2022-03-10_11h43.42.757,HW1_Rostami_810100355,2022.1.1,60.04790623,l
10.bmp,"(1.74, 3)","(3.49, 3.49)",0,0,0,0,,,,,0,113,113,15,,,,,,,,,,,,,,,,,,,,,,,,,,,685.3720119,None,685.871967,685.9216284,w,0.5102234,685.871967,None,,,8101003551,r,r,25,3,2022-03-10_11h43.42.757,HW1_Rostami_810100355,2022.1.1,60.04790623,l
30.bmp,"(0, -6.11)","(5.24, 5.24)",0,0,0,0,,,,,0,114,114,50,,,,,,,,,,,,,,,,,,,,,,,,,,,686.4044903,None,686.9038844,686.9540922,w,0.4311569,686.9038844,None,,,8101003551,r,r,25,3,2022-03-10_11h43.42.757,HW1_Rostami_810100355,2022.1.1,60.04790623,l
60.bmp,"(0, 6.11)","(5.24, 5.24)",0,0,0,0,,,,,0,115,115,86,,,,,,,,,,,,,,,,,,,,,,,,,,,687.3536313,None,687.8532996,687.9029447,w,0.4314327,687.8532996,None,,,8101003551,r,r,25,3,2022-03-10_11h43.42.757,HW1_Rostami_810100355,2022.1.1,60.04790623,l
80.bmp,"(-1.74, 3)","(3.49, 3.49)",0,0,0,0,,,,,0,116,116,107,,,,,,,,,,,,,,,,,,,,,,,,,,,688.302593,None,688.80217,688.8520426,w,1.6244647,688.80217,None,,,8101003551,r,r,25,3,2022-03-10_11h43.42.757,HW1_Rostami_810100355,2022.1.1,60.04790623,l
70.bmp,"(-5.25, 3.05)","(5.24, 5.24)",0,0,0,0,,,,,1,0,117,100,,,,,,,,,,,,,,,,,,,,,,,,,,,690.4509672,None,690.950562,691.0003209,w,0.8261106,690.950562,None,,,8101003551,r,r,25,3,2022-03-10_11h43.42.757,HW1_Rostami_810100355,2022.1.1,60.04790623,l
60.bmp,"(0, -6.11)","(5.24, 5.24)",0,0,0,0,,,,,1,1,118,89,,,,,,,,,,,,,,,,,,,,,,,,,,,691.7996357,None,692.2992999,692.3488741,w,0.5568227,692.2992999,None,,,8101003551,r,r,25,3,2022-03-10_11h43.42.757,HW1_Rostami_810100355,2022.1.1,60.04790623,l
80.bmp,"(0, -6.11)","(5.24, 5.24)",0,0,0,0,,,,,1,2,119,115,,,,,,,,,,,,,,,,,,,,,,,,,,,692.8819455,None,693.381913,693.4314613,w,0.7344204,693.381913,None,,,8101003551,r,r,25,3,2022-03-10_11h43.42.757,HW1_Rostami_810100355,2022.1.1,60.04790623,l
20.bmp,"(5.25, 3.05)","(5.24, 5.24)",0,0,0,0,,,,,1,3,120,33,,,,,,,,,,,,,,,,,,,,,,,,,,,694.1473017,None,694.64721,694.6970806,w,0.521819,694.64721,None,,,8101003551,r,r,25,3,2022-03-10_11h43.42.757,HW1_Rostami_810100355,2022.1.1,60.04790623,l
80.bmp,"(-5.25, 3.05)","(5.24, 5.24)",0,0,0,0,,,,,1,4,121,113,,,,,,,,,,,,,,,,,,,,,,,,,,,695.1970577,None,695.712832,695.7631212,w,0.5507594,695.712832,None,,,8101003551,r,r,25,3,2022-03-10_11h43.42.757,HW1_Rostami_810100355,2022.1.1,60.04790623,l
0.bmp,"(-1.74, -3)","(3.49, 3.49)",0,0,0,0,,,,,1,5,122,5,,,,,,,,,,,,,,,,,,,,,,,,,,,696.2953638,None,696.795391,696.8450092,w,0.5662325,696.795391,None,,,8101003551,r,r,25,3,2022-03-10_11h43.42.757,HW1_Rostami_810100355,2022.1.1,60.04790623,l
20.bmp,"(-3.49, 0)","(3.49, 3.49)",0,0,0,0,,,,,1,6,123,30,,,,,,,,,,,,,,,,,,,,,,,,,,,697.3949781,None,697.8943555,697.9441513,w,0.2932646,697.8943555,None,,,8101003551,r,r,25,3,2022-03-10_11h43.42.757,HW1_Rostami_810100355,2022.1.1,60.04790623,l
20.bmp,"(0, -6.11)","(5.24, 5.24)",0,0,0,0,,,,,1,7,124,37,,,,,,,,,,,,,,,,,,,,,,,,,,,698.2110496,None,698.7103485,698.7602106,w,0.2588326,698.7103485,None,,,8101003551,r,r,25,3,2022-03-10_11h43.42.757,HW1_Rostami_810100355,2022.1.1,60.04790623,l
80.bmp,"(-1.74, -3)","(3.49, 3.49)",0,0,0,0,,,,,1,8,125,109,,,,,,,,,,,,,,,,,,,,,,,,,,,698.9933573,None,699.4930569,699.5429618,w,0.3228365,699.4930569,None,,,8101003551,r,r,25,3,2022-03-10_11h43.42.757,HW1_Rostami_810100355,2022.1.1,60.04790623,l
80.bmp,"(0, 6.11)","(5.24, 5.24)",0,0,0,0,,,,,1,9,126,112,,,,,,,,,,,,,,,,,,,,,,,,,,,699.8425547,None,700.3422677,700.392256,w,0.2833017,700.3422677,None,,,8101003551,r,r,25,3,2022-03-10_11h43.42.757,HW1_Rostami_810100355,2022.1.1,60.04790623,l
40.bmp,"(5.25, 3.05)","(5.24, 5.24)",0,0,0,0,,,,,1,10,127,59,,,,,,,,,,,,,,,,,,,,,,,,,,,700.6422183,None,701.1414673,701.1915115,w,0.688026,701.1414673,None,,,8101003551,r,r,25,3,2022-03-10_11h43.42.757,HW1_Rostami_810100355,2022.1.1,60.04790623,l
10.bmp,"(1.74, -3)","(3.49, 3.49)",0,0,0,0,,,,,1,11,128,19,,,,,,,,,,,,,,,,,,,,,,,,,,,701.8577084,None,702.3568981,702.406764,w,0.4345346,702.3568981,None,,,8101003551,r,r,25,3,2022-03-10_11h43.42.757,HW1_Rostami_810100355,2022.1.1,60.04790623,l
80.bmp,"(1.74, -3)","(3.49, 3.49)",0,0,0,0,,,,,1,12,129,110,,,,,,,,,,,,,,,,,,,,,,,,,,,702.8230669,None,703.3232363,703.3727869,w,1.4141799,703.3232363,None,,,8101003551,r,r,25,3,2022-03-10_11h43.42.757,HW1_Rostami_810100355,2022.1.1,60.04790623,l
0.bmp,"(3.49, 0)","(3.49, 3.49)",0,0,0,0,,,,,1,13,130,1,,,,,,,,,,,,,,,,,,,,,,,,,,,704.7552459,None,705.2547911,705.3045623,w,1.7185032,705.2547911,None,,,8101003551,r,r,25,3,2022-03-10_11h43.42.757,HW1_Rostami_810100355,2022.1.1,60.04790623,l
10.bmp,"(3.49, 0)","(3.49, 3.49)",0,0,0,0,,,,,1,14,131,14,,,,,,,,,,,,,,,,,,,,,,,,,,,707.0031729,None,707.5026589,707.5528136,w,1.0963187,707.5026589,None,,,8101003551,r,r,25,3,2022-03-10_11h43.42.757,HW1_Rostami_810100355,2022.1.1,60.04790623,l
40.bmp,"(-3.49, 0)","(3.49, 3.49)",0,0,0,0,,,,,1,15,132,56,,,,,,,,,,,,,,,,,,,,,,,,,,,708.6182325,None,709.1183136,709.1681474,w,1.1323582,709.1183136,None,,,8101003551,r,r,25,3,2022-03-10_11h43.42.757,HW1_Rostami_810100355,2022.1.1,60.04790623,l
60.bmp,"(3.49, 0)","(3.49, 3.49)",0,0,0,0,,,,,1,16,133,79,,,,,,,,,,,,,,,,,,,,,,,,,,,710.2669646,None,710.766674,710.8164934,w,0.6162625,710.766674,None,,,8101003551,r,r,25,3,2022-03-10_11h43.42.757,HW1_Rostami_810100355,2022.1.1,60.04790623,l
60.bmp,"(1.74, 3)","(3.49, 3.49)",0,0,0,0,,,,,1,17,134,80,,,,,,,,,,,,,,,,,,,,,,,,,,,711.399183,None,711.8990341,711.9489414,w,0.5914116,711.8990341,None,,,8101003551,r,r,25,3,2022-03-10_11h43.42.757,HW1_Rostami_810100355,2022.1.1,60.04790623,l
40.bmp,"(-5.25, 3.05)","(5.24, 5.24)",0,0,0,0,,,,,1,18,135,61,,,,,,,,,,,,,,,,,,,,,,,,,,,712.5146081,None,713.0148562,713.0647841,w,0.6869576,713.0148562,None,,,8101003551,r,r,25,3,2022-03-10_11h43.42.757,HW1_Rostami_810100355,2022.1.1,60.04790623,l
60.bmp,"(0, 0)","(2.18, 2.18)",0,0,0,0,,,,,1,19,136,78,,,,,,,,,,,,,,,,,,,,,,,,,,,713.7303455,None,714.2299124,714.2803989,w,0.5691069,714.2299124,None,,,8101003551,r,r,25,3,2022-03-10_11h43.42.757,HW1_Rostami_810100355,2022.1.1,60.04790623,l
50.bmp,"(-5.25, 3.05)","(5.24, 5.24)",0,0,0,0,,,,,1,20,137,74,,,,,,,,,,,,,,,,,,,,,,,,,,,714.8295376,None,715.3296126,715.3794999,w,0.6328063,715.3296126,None,,,8101003551,r,r,25,3,2022-03-10_11h43.42.757,HW1_Rostami_810100355,2022.1.1,60.04790623,l
20.bmp,"(0, 6.11)","(5.24, 5.24)",0,0,0,0,,,,,1,21,138,34,,,,,,,,,,,,,,,,,,,,,,,,,,,715.9952348,None,716.495034,716.5450269,w,0.5404236,716.495034,None,,,8101003551,r,r,25,3,2022-03-10_11h43.42.757,HW1_Rostami_810100355,2022.1.1,60.04790623,l
10.bmp,"(0, 0)","(2.18, 2.18)",0,0,0,0,,,,,1,22,139,13,,,,,,,,,,,,,,,,,,,,,,,,,,,717.0610336,None,717.5604961,717.6106519,w,0.6536792,717.5604961,None,,,8101003551,r,r,25,3,2022-03-10_11h43.42.757,HW1_Rostami_810100355,2022.1.1,60.04790623,l
30.bmp,"(-5.25, 3.05)","(5.24, 5.24)",0,0,0,0,,,,,1,23,140,48,,,,,,,,,,,,,,,,,,,,,,,,,,,718.2430794,None,718.7431548,718.7929416,w,0.7055826,718.7431548,None,,,8101003551,r,r,25,3,2022-03-10_11h43.42.757,HW1_Rostami_810100355,2022.1.1,60.04790623,l
80.bmp,"(5.25, 3.05)","(5.24, 5.24)",0,0,0,0,,,,,1,24,141,111,,,,,,,,,,,,,,,,,,,,,,,,,,,719.475441,None,719.975207,720.0250209,w,0.6064489,719.975207,None,,,8101003551,r,r,25,3,2022-03-10_11h43.42.757,HW1_Rostami_810100355,2022.1.1,60.04790623,l
70.bmp,"(0, 0)","(2.18, 2.18)",0,0,0,0,,,,,1,25,142,91,,,,,,,,,,,,,,,,,,,,,,,,,,,720.6080732,None,721.1075341,721.157541,w,0.529963,721.1075341,None,,,8101003551,r,r,25,3,2022-03-10_11h43.42.757,HW1_Rostami_810100355,2022.1.1,60.04790623,l
20.bmp,"(-1.74, -3)","(3.49, 3.49)",0,0,0,0,,,,,1,26,143,31,,,,,,,,,,,,,,,,,,,,,,,,,,,721.6570146,None,722.1565554,722.2065067,w,0.704802,722.1565554,None,,,8101003551,r,r,25,3,2022-03-10_11h43.42.757,HW1_Rostami_810100355,2022.1.1,60.04790623,l
70.bmp,"(5.25, -3.05)","(5.24, 5.24)",0,0,0,0,,,,,1,27,144,103,,,,,,,,,,,,,,,,,,,,,,,,,,,722.8891323,None,723.3886249,723.438677,w,0.6833441,723.3886249,None,,,8101003551,r,r,25,3,2022-03-10_11h43.42.757,HW1_Rostami_810100355,2022.1.1,60.04790623,l
10.bmp,"(-3.49, 0)","(3.49, 3.49)",0,0,0,0,,,,,1,28,145,17,,,,,,,,,,,,,,,,,,,,,,,,,,,724.1051719,None,724.6046781,724.6546463,w,0.5614969,724.6046781,None,,,8101003551,r,r,25,3,2022-03-10_11h43.42.757,HW1_Rostami_810100355,2022.1.1,60.04790623,l
80.bmp,"(-1.74, 3)","(3.49, 3.49)",0,0,0,0,,,,,1,29,146,107,,,,,,,,,,,,,,,,,,,,,,,,,,,725.1876326,None,725.6870985,725.7367426,w,4.2878879,725.6870985,None,,,8101003551,r,r,25,3,2022-03-10_11h43.42.757,HW1_Rostami_810100355,2022.1.1,60.04790623,l
0.bmp,"(5.25, 3.05)","(5.24, 5.24)",0,0,0,0,,,,,1,30,147,7,,,,,,,,,,,,,,,,,,,,,,,,,,,729.9996236,None,730.4994016,730.5492173,w,1.900789,730.4994016,None,,,8101003551,r,r,25,3,2022-03-10_11h43.42.757,HW1_Rostami_810100355,2022.1.1,60.04790623,l
0.bmp,"(0, 0)","(2.18, 2.18)",0,0,0,0,,,,,1,31,148,0,,,,,,,,,,,,,,,,,,,,,,,,,,,732.4305987,None,732.9309167,732.980336,w,0.7209404,732.9309167,None,,,8101003551,r,r,25,3,2022-03-10_11h43.42.757,HW1_Rostami_810100355,2022.1.1,60.04790623,l
40.bmp,"(3.49, 0)","(3.49, 3.49)",0,0,0,0,,,,,1,32,149,53,,,,,,,,,,,,,,,,,,,,,,,,,,,733.6797163,None,734.1794323,734.2295857,w,0.8208593,734.1794323,None,,,8101003551,r,r,25,3,2022-03-10_11h43.42.757,HW1_Rostami_810100355,2022.1.1,60.04790623,l
50.bmp,"(0, 0)","(2.18, 2.18)",0,0,0,0,,,,,1,33,150,65,,,,,,,,,,,,,,,,,,,,,,,,,,,735.0287833,None,735.5283895,735.5782157,w,1.5820214,735.5283895,None,,,8101003551,r,r,25,3,2022-03-10_11h43.42.757,HW1_Rostami_810100355,2022.1.1,60.04790623,l
0.bmp,"(5.25, -3.05)","(5.24, 5.24)",0,0,0,0,,,,,1,34,151,12,,,,,,,,,,,,,,,,,,,,,,,,,,,737.1268027,None,737.6263708,737.6761953,w,0.9018453,737.6263708,None,,,8101003551,r,r,25,3,2022-03-10_11h43.42.757,HW1_Rostami_810100355,2022.1.1,60.04790623,l
30.bmp,"(-3.49, 0)","(3.49, 3.49)",0,0,0,0,,,,,1,35,152,43,,,,,,,,,,,,,,,,,,,,,,,,,,,738.5589122,None,739.0584996,739.1086031,w,1.0121013,739.0584996,None,,,8101003551,r,r,25,3,2022-03-10_11h43.42.757,HW1_Rostami_810100355,2022.1.1,60.04790623,l
60.bmp,"(5.25, -3.05)","(5.24, 5.24)",0,0,0,0,,,,,1,36,153,90,,,,,,,,,,,,,,,,,,,,,,,,,,,740.0911866,None,740.5905179,740.6403622,w,0.6638336,740.5905179,None,,,8101003551,r,r,25,3,2022-03-10_11h43.42.757,HW1_Rostami_810100355,2022.1.1,60.04790623,l
40.bmp,"(0, -6.11)","(5.24, 5.24)",0,0,0,0,,,,,1,37,154,63,,,,,,,,,,,,,,,,,,,,,,,,,,,741.273142,None,741.772961,741.8228016,w,1.6532555,741.772961,None,,,8101003551,r,r,25,3,2022-03-10_11h43.42.757,HW1_Rostami_810100355,2022.1.1,60.04790623,l
30.bmp,"(5.25, 3.05)","(5.24, 5.24)",0,0,0,0,,,,,1,38,155,46,,,,,,,,,,,,,,,,,,,,,,,,,,,743.4548819,None,743.9540666,744.0044324,w,0.6993666,743.9540666,None,,,8101003551,r,r,25,3,2022-03-10_11h43.42.757,HW1_Rostami_810100355,2022.1.1,60.04790623,l
10.bmp,"(0, 6.11)","(5.24, 5.24)",0,0,0,0,,,,,1,39,156,21,,,,,,,,,,,,,,,,,,,,,,,,,,,744.6705692,None,745.1697642,745.2196013,w,3.2629224,745.1697642,None,,,8101003551,r,r,25,3,2022-03-10_11h43.42.757,HW1_Rostami_810100355,2022.1.1,60.04790623,l
80.bmp,"(5.25, -3.05)","(5.24, 5.24)",0,0,0,0,,,,,1,40,157,116,,,,,,,,,,,,,,,,,,,,,,,,,,,748.4501601,None,748.9500119,748.9999457,w,0.6435304,748.9500119,None,,,8101003551,r,r,25,3,2022-03-10_11h43.42.757,HW1_Rostami_810100355,2022.1.1,60.04790623,l
50.bmp,"(1.74, -3)","(3.49, 3.49)",0,0,0,0,,,,,1,41,158,71,,,,,,,,,,,,,,,,,,,,,,,,,,,749.61605,None,750.1156436,750.1652781,w,2.3301881,750.1156436,None,,,8101003551,r,r,25,3,2022-03-10_11h43.42.757,HW1_Rostami_810100355,2022.1.1,60.04790623,l
20.bmp,"(1.74, -3)","(3.49, 3.49)",0,0,0,0,,,,,1,42,159,32,,,,,,,,,,,,,,,,,,,,,,,,,,,752.4632458,None,752.9634399,753.0132757,w,0.5439388,752.9634399,None,,,8101003551,r,r,25,3,2022-03-10_11h43.42.757,HW1_Rostami_810100355,2022.1.1,60.04790623,l
0.bmp,"(0, 6.11)","(5.24, 5.24)",0,0,0,0,,,,,1,43,160,8,,,,,,,,,,,,,,,,,,,,,,,,,,,753.529056,None,754.028901,754.0784457,w,0.5876453,754.028901,None,,,8101003551,r,r,25,3,2022-03-10_11h43.42.757,HW1_Rostami_810100355,2022.1.1,60.04790623,l
20.bmp,"(-5.25, -3.05)","(5.24, 5.24)",0,0,0,0,,,,,1,44,161,36,,,,,,,,,,,,,,,,,,,,,,,,,,,754.6448962,None,755.1445497,755.19438,w,0.7271923,755.1445497,None,,,8101003551,r,r,25,3,2022-03-10_11h43.42.757,HW1_Rostami_810100355,2022.1.1,60.04790623,l
10.bmp,"(-1.74, -3)","(3.49, 3.49)",0,0,0,0,,,,,1,45,162,18,,,,,,,,,,,,,,,,,,,,,,,,,,,755.8938466,None,756.3935347,756.4432316,w,1.8533212,756.3935347,None,,,8101003551,r,r,25,3,2022-03-10_11h43.42.757,HW1_Rostami_810100355,2022.1.1,60.04790623,l
0.bmp,"(1.74, 3)","(3.49, 3.49)",0,0,0,0,,,,,1,46,163,2,,,,,,,,,,,,,,,,,,,,,,,,,,,758.2750316,None,758.7746266,758.8244371,w,0.637912,758.7746266,None,,,8101003551,r,r,25,3,2022-03-10_11h43.42.757,HW1_Rostami_810100355,2022.1.1,60.04790623,l
80.bmp,"(-5.25, -3.05)","(5.24, 5.24)",0,0,0,0,,,,,1,47,164,114,,,,,,,,,,,,,,,,,,,,,,,,,,,759.4403908,None,759.9400835,759.9899382,w,0.779097,759.9400835,None,,,8101003551,r,r,25,3,2022-03-10_11h43.42.757,HW1_Rostami_810100355,2022.1.1,60.04790623,l
80.bmp,"(-3.49, 0)","(3.49, 3.49)",0,0,0,0,,,,,1,48,165,108,,,,,,,,,,,,,,,,,,,,,,,,,,,760.7392609,None,761.238975,761.2887992,w,1.2683374,761.238975,None,,,8101003551,r,r,25,3,2022-03-10_11h43.42.757,HW1_Rostami_810100355,2022.1.1,60.04790623,l
40.bmp,"(-5.25, -3.05)","(5.24, 5.24)",0,0,0,0,,,,,1,49,166,62,,,,,,,,,,,,,,,,,,,,,,,,,,,762.5378161,None,763.038,763.0876331,w,0.6553307,763.038,None,,,8101003551,r,r,25,3,2022-03-10_11h43.42.757,HW1_Rostami_810100355,2022.1.1,60.04790623,l
50.bmp,"(5.25, -3.05)","(5.24, 5.24)",0,0,0,0,,,,,1,50,167,77,,,,,,,,,,,,,,,,,,,,,,,,,,,763.7202554,None,764.2198996,764.2696988,w,0.563511,764.2198996,None,,,8101003551,r,r,25,3,2022-03-10_11h43.42.757,HW1_Rostami_810100355,2022.1.1,60.04790623,l
70.bmp,"(1.74, -3)","(3.49, 3.49)",0,0,0,0,,,,,1,51,168,97,,,,,,,,,,,,,,,,,,,,,,,,,,,764.802844,None,765.3025708,765.352374,w,0.4695288,765.3025708,None,,,8101003551,r,r,25,3,2022-03-10_11h43.42.757,HW1_Rostami_810100355,2022.1.1,60.04790623,l
10.bmp,"(1.74, 3)","(3.49, 3.49)",0,0,0,0,,,,,1,52,169,15,,,,,,,,,,,,,,,,,,,,,,,,,,,765.8017502,None,766.3014663,766.3516485,w,0.4328903,766.3014663,None,,,8101003551,r,r,25,3,2022-03-10_11h43.42.757,HW1_Rostami_810100355,2022.1.1,60.04790623,l
